"rt","response","type_of_trial","subject","trial_type","trial_index","time_elapsed","internal_node_id","run_id","condition","recorded_at","source_code_version","ip","user_agent","device","browser","browser_version","platform","platform_version","ID","stimulus","cluster","domain","current_pair","attention","response_number","Experiment","question_order"
"2226","{""prolific_id"":""5df349624a2ad422886271ff""}","prolific_id","","survey-text","0","2239","0.0-0.0","95","10","2023-06-05 18:24:54","b580c6cbc1ea35a8825601504c3c9405","","Mozilla/5.0 (Linux; Android 10; K) AppleWebKit/537.36 (KHTML, like Gecko) Chrome/114.0.0.0 Mobile Safari/537.36","WebKit","Chrome","114.0.0.0","AndroidOS","10","427825642","","","","","","","",""
"16717","0","","","html-button-response","1","18966","0.0-1.0","95","10","2023-06-05 18:24:54","b580c6cbc1ea35a8825601504c3c9405","","Mozilla/5.0 (Linux; Android 10; K) AppleWebKit/537.36 (KHTML, like Gecko) Chrome/114.0.0.0 Mobile Safari/537.36","WebKit","Chrome","114.0.0.0","AndroidOS","10","427825642","<p style=""font-size:20px;"">Welcome! This is a short experiment and should take you about 15-20 minutes to complete. </p>
        <p style=""font-size:20px;""> In this experiment you will be presented with pairs of words.</p>
        <p style=""font-size:20px;""> You will choose whether or not the pairs of words you see belong in the same group. </p>
        <p style=""font-size:20px;""> Exactly how you define a ""group"" is up to you - use whatever method feels comfortable to make these decisions, there are no wrong answers!</p>
        <p style=""font-size:20px;""> The pairs of words you see will be drawn from three different categories: </p>
        <p style=""font-size:20px;""> Animals, Occupations, and Foods. </p>
        <p style=""font-size:20px;""> In order to familiarize yourself with this procedure, you will first be given some practice with all three categories. </p>
         <p style=""font-size:20px;""> Press continue when you are ready to begin the practice trial.</p>","","","","","","",""
"4272","0","","","html-button-response","2","23242","0.0-2.0","95","10","2023-06-05 18:24:54","b580c6cbc1ea35a8825601504c3c9405","","Mozilla/5.0 (Linux; Android 10; K) AppleWebKit/537.36 (KHTML, like Gecko) Chrome/114.0.0.0 Mobile Safari/537.36","WebKit","Chrome","114.0.0.0","AndroidOS","10","427825642","You will now practice providing groupings for the category: OCCUPATIONS<br><br>","","","","","","",""
"null","null","","","html-keyboard-response","3","23251","0.0-3.0","95","10","2023-06-05 18:24:54","b580c6cbc1ea35a8825601504c3c9405","","Mozilla/5.0 (Linux; Android 10; K) AppleWebKit/537.36 (KHTML, like Gecko) Chrome/114.0.0.0 Mobile Safari/537.36","WebKit","Chrome","114.0.0.0","AndroidOS","10","427825642","<p style=""font-size: 48px;""></p>","","","","","","",""
"null","null","","","html-keyboard-response","4","23758","0.0-4.0-0.0","95","10","2023-06-05 18:24:54","b580c6cbc1ea35a8825601504c3c9405","","Mozilla/5.0 (Linux; Android 10; K) AppleWebKit/537.36 (KHTML, like Gecko) Chrome/114.0.0.0 Mobile Safari/537.36","WebKit","Chrome","114.0.0.0","AndroidOS","10","427825642","<p style=""font-size: 60px;"">+</p>","","","","","","",""
"","","practice","","html-button-response","5","23767","0.0-4.0-1.0-0.0","95","10","2023-06-05 18:24:54","b580c6cbc1ea35a8825601504c3c9405","","Mozilla/5.0 (Linux; Android 10; K) AppleWebKit/537.36 (KHTML, like Gecko) Chrome/114.0.0.0 Mobile Safari/537.36","WebKit","Chrome","114.0.0.0","AndroidOS","10","427825642","","DOCTOR","","","","","",""
"","","practice_attention","practice","survey-text","6","23785","0.0-4.0-2.0","95","10","2023-06-05 18:24:54","b580c6cbc1ea35a8825601504c3c9405","","Mozilla/5.0 (Linux; Android 10; K) AppleWebKit/537.36 (KHTML, like Gecko) Chrome/114.0.0.0 Mobile Safari/537.36","WebKit","Chrome","114.0.0.0","AndroidOS","10","427825642","","","occupations","","","","",""
"null","null","","","html-keyboard-response","7","24294","0.0-4.0-0.1","95","10","2023-06-05 18:24:54","b580c6cbc1ea35a8825601504c3c9405","","Mozilla/5.0 (Linux; Android 10; K) AppleWebKit/537.36 (KHTML, like Gecko) Chrome/114.0.0.0 Mobile Safari/537.36","WebKit","Chrome","114.0.0.0","AndroidOS","10","427825642","<p style=""font-size: 60px;"">+</p>","","","","","","",""
"4029","1","practice","","html-button-response","8","28329","0.0-4.0-1.1-0.1","95","10","2023-06-05 18:24:54","b580c6cbc1ea35a8825601504c3c9405","","Mozilla/5.0 (Linux; Android 10; K) AppleWebKit/537.36 (KHTML, like Gecko) Chrome/114.0.0.0 Mobile Safari/537.36","WebKit","Chrome","114.0.0.0","AndroidOS","10","427825642","<span style='color:red; font-size:150%'> DOCTOR</span> <span style='color:black;font-size:150%'> - </span><span style='color:green;font-size:150%'>LAWYER</span> <br> <p> Would you put them in the same group?</p>","LAWYER","","","","","",""
"","","practice_attention","practice","survey-text","9","28339","0.0-4.0-2.1","95","10","2023-06-05 18:24:54","b580c6cbc1ea35a8825601504c3c9405","","Mozilla/5.0 (Linux; Android 10; K) AppleWebKit/537.36 (KHTML, like Gecko) Chrome/114.0.0.0 Mobile Safari/537.36","WebKit","Chrome","114.0.0.0","AndroidOS","10","427825642","","","occupations","","","","",""
"null","null","","","html-keyboard-response","10","28846","0.0-4.0-0.2","95","10","2023-06-05 18:24:54","b580c6cbc1ea35a8825601504c3c9405","","Mozilla/5.0 (Linux; Android 10; K) AppleWebKit/537.36 (KHTML, like Gecko) Chrome/114.0.0.0 Mobile Safari/537.36","WebKit","Chrome","114.0.0.0","AndroidOS","10","427825642","<p style=""font-size: 60px;"">+</p>","","","","","","",""
"2536","0","practice","","html-button-response","11","31391","0.0-4.0-1.2-0.2","95","10","2023-06-05 18:24:54","b580c6cbc1ea35a8825601504c3c9405","","Mozilla/5.0 (Linux; Android 10; K) AppleWebKit/537.36 (KHTML, like Gecko) Chrome/114.0.0.0 Mobile Safari/537.36","WebKit","Chrome","114.0.0.0","AndroidOS","10","427825642","<span style='color:green; font-size:150%'> LAWYER</span> <span style='color:black;font-size:150%'> - </span><span style='color:blue;font-size:150%'>POLICE_OFFICER</span> <br> <p> Would you put them in the same group?</p>","POLICE_OFFICER","","","","","",""
"15734","doctor","practice_attention","practice","survey-text","12","47130","0.0-4.0-2.2","95","10","2023-06-05 18:24:54","b580c6cbc1ea35a8825601504c3c9405","","Mozilla/5.0 (Linux; Android 10; K) AppleWebKit/537.36 (KHTML, like Gecko) Chrome/114.0.0.0 Mobile Safari/537.36","WebKit","Chrome","114.0.0.0","AndroidOS","10","427825642","","","occupations","lawyer, police_officer","0","","",""
"null","null","","","html-keyboard-response","13","48650","0.0-4.0-3.2-0.2","95","10","2023-06-05 18:24:54","b580c6cbc1ea35a8825601504c3c9405","","Mozilla/5.0 (Linux; Android 10; K) AppleWebKit/537.36 (KHTML, like Gecko) Chrome/114.0.0.0 Mobile Safari/537.36","WebKit","Chrome","114.0.0.0","AndroidOS","10","427825642","<span style='color:red; font-size:150%'>Wrong! Please pay attention!</span>","","","","","","",""
"null","null","","","html-keyboard-response","14","49174","0.0-4.0-0.3","95","10","2023-06-05 18:24:54","b580c6cbc1ea35a8825601504c3c9405","","Mozilla/5.0 (Linux; Android 10; K) AppleWebKit/537.36 (KHTML, like Gecko) Chrome/114.0.0.0 Mobile Safari/537.36","WebKit","Chrome","114.0.0.0","AndroidOS","10","427825642","<p style=""font-size: 60px;"">+</p>","","","","","","",""
"4349","1","practice","","html-button-response","15","53539","0.0-4.0-1.3-0.3","95","10","2023-06-05 18:24:54","b580c6cbc1ea35a8825601504c3c9405","","Mozilla/5.0 (Linux; Android 10; K) AppleWebKit/537.36 (KHTML, like Gecko) Chrome/114.0.0.0 Mobile Safari/537.36","WebKit","Chrome","114.0.0.0","AndroidOS","10","427825642","<span style='color:blue; font-size:150%'> POLICE_OFFICER</span> <span style='color:black;font-size:150%'> - </span><span style='color:red;font-size:150%'>NURSE</span> <br> <p> Would you put them in the same group?</p>","NURSE","","","","","",""
"","","practice_attention","practice","survey-text","16","53543","0.0-4.0-2.3","95","10","2023-06-05 18:24:54","b580c6cbc1ea35a8825601504c3c9405","","Mozilla/5.0 (Linux; Android 10; K) AppleWebKit/537.36 (KHTML, like Gecko) Chrome/114.0.0.0 Mobile Safari/537.36","WebKit","Chrome","114.0.0.0","AndroidOS","10","427825642","","","occupations","","","","",""
"null","null","","","html-keyboard-response","17","54054","0.0-4.0-0.4","95","10","2023-06-05 18:24:54","b580c6cbc1ea35a8825601504c3c9405","","Mozilla/5.0 (Linux; Android 10; K) AppleWebKit/537.36 (KHTML, like Gecko) Chrome/114.0.0.0 Mobile Safari/537.36","WebKit","Chrome","114.0.0.0","AndroidOS","10","427825642","<p style=""font-size: 60px;"">+</p>","","","","","","",""
"5383","1","practice","","html-button-response","18","59445","0.0-4.0-1.4-0.4","95","10","2023-06-05 18:24:54","b580c6cbc1ea35a8825601504c3c9405","","Mozilla/5.0 (Linux; Android 10; K) AppleWebKit/537.36 (KHTML, like Gecko) Chrome/114.0.0.0 Mobile Safari/537.36","WebKit","Chrome","114.0.0.0","AndroidOS","10","427825642","<span style='color:red; font-size:150%'> NURSE</span> <span style='color:black;font-size:150%'> - </span><span style='color:green;font-size:150%'>SECRETARY</span> <br> <p> Would you put them in the same group?</p>","SECRETARY","","","","","",""
"","","practice_attention","practice","survey-text","19","59449","0.0-4.0-2.4","95","10","2023-06-05 18:24:54","b580c6cbc1ea35a8825601504c3c9405","","Mozilla/5.0 (Linux; Android 10; K) AppleWebKit/537.36 (KHTML, like Gecko) Chrome/114.0.0.0 Mobile Safari/537.36","WebKit","Chrome","114.0.0.0","AndroidOS","10","427825642","","","occupations","","","","",""
"null","null","","","html-keyboard-response","20","59958","0.0-4.0-0.5","95","10","2023-06-05 18:24:54","b580c6cbc1ea35a8825601504c3c9405","","Mozilla/5.0 (Linux; Android 10; K) AppleWebKit/537.36 (KHTML, like Gecko) Chrome/114.0.0.0 Mobile Safari/537.36","WebKit","Chrome","114.0.0.0","AndroidOS","10","427825642","<p style=""font-size: 60px;"">+</p>","","","","","","",""
"3888","0","practice","","html-button-response","21","63854","0.0-4.0-1.5-0.5","95","10","2023-06-05 18:24:54","b580c6cbc1ea35a8825601504c3c9405","","Mozilla/5.0 (Linux; Android 10; K) AppleWebKit/537.36 (KHTML, like Gecko) Chrome/114.0.0.0 Mobile Safari/537.36","WebKit","Chrome","114.0.0.0","AndroidOS","10","427825642","<span style='color:green; font-size:150%'> SECRETARY</span> <span style='color:black;font-size:150%'> - </span><span style='color:blue;font-size:150%'>RUNNER</span> <br> <p> Would you put them in the same group?</p>","RUNNER","","","","","",""
"","","practice_attention","practice","survey-text","22","63867","0.0-4.0-2.5","95","10","2023-06-05 18:24:54","b580c6cbc1ea35a8825601504c3c9405","","Mozilla/5.0 (Linux; Android 10; K) AppleWebKit/537.36 (KHTML, like Gecko) Chrome/114.0.0.0 Mobile Safari/537.36","WebKit","Chrome","114.0.0.0","AndroidOS","10","427825642","","","occupations","","","","",""
"null","null","","","html-keyboard-response","23","64381","0.0-4.0-0.6","95","10","2023-06-05 18:24:54","b580c6cbc1ea35a8825601504c3c9405","","Mozilla/5.0 (Linux; Android 10; K) AppleWebKit/537.36 (KHTML, like Gecko) Chrome/114.0.0.0 Mobile Safari/537.36","WebKit","Chrome","114.0.0.0","AndroidOS","10","427825642","<p style=""font-size: 60px;"">+</p>","","","","","","",""
"3829","1","practice","","html-button-response","24","68216","0.0-4.0-1.6-0.6","95","10","2023-06-05 18:24:54","b580c6cbc1ea35a8825601504c3c9405","","Mozilla/5.0 (Linux; Android 10; K) AppleWebKit/537.36 (KHTML, like Gecko) Chrome/114.0.0.0 Mobile Safari/537.36","WebKit","Chrome","114.0.0.0","AndroidOS","10","427825642","<span style='color:blue; font-size:150%'> RUNNER</span> <span style='color:black;font-size:150%'> - </span><span style='color:red;font-size:150%'>TEACHER</span> <br> <p> Would you put them in the same group?</p>","TEACHER","","","","","",""
"","","practice_attention","practice","survey-text","25","68220","0.0-4.0-2.6","95","10","2023-06-05 18:24:54","b580c6cbc1ea35a8825601504c3c9405","","Mozilla/5.0 (Linux; Android 10; K) AppleWebKit/537.36 (KHTML, like Gecko) Chrome/114.0.0.0 Mobile Safari/537.36","WebKit","Chrome","114.0.0.0","AndroidOS","10","427825642","","","occupations","","","","",""
"null","null","","","html-keyboard-response","26","68726","0.0-4.0-0.7","95","10","2023-06-05 18:24:54","b580c6cbc1ea35a8825601504c3c9405","","Mozilla/5.0 (Linux; Android 10; K) AppleWebKit/537.36 (KHTML, like Gecko) Chrome/114.0.0.0 Mobile Safari/537.36","WebKit","Chrome","114.0.0.0","AndroidOS","10","427825642","<p style=""font-size: 60px;"">+</p>","","","","","","",""
"8047","1","practice","","html-button-response","27","76781","0.0-4.0-1.7-0.7","95","10","2023-06-05 18:24:54","b580c6cbc1ea35a8825601504c3c9405","","Mozilla/5.0 (Linux; Android 10; K) AppleWebKit/537.36 (KHTML, like Gecko) Chrome/114.0.0.0 Mobile Safari/537.36","WebKit","Chrome","114.0.0.0","AndroidOS","10","427825642","<span style='color:red; font-size:150%'> TEACHER</span> <span style='color:black;font-size:150%'> - </span><span style='color:green;font-size:150%'>FIREMAN</span> <br> <p> Would you put them in the same group?</p>","FIREMAN","","","","","",""
"","","practice_attention","practice","survey-text","28","76793","0.0-4.0-2.7","95","10","2023-06-05 18:24:54","b580c6cbc1ea35a8825601504c3c9405","","Mozilla/5.0 (Linux; Android 10; K) AppleWebKit/537.36 (KHTML, like Gecko) Chrome/114.0.0.0 Mobile Safari/537.36","WebKit","Chrome","114.0.0.0","AndroidOS","10","427825642","","","occupations","","","","",""
"3856","0","","","html-button-response","29","80657","0.0-5.0","95","10","2023-06-05 18:24:54","b580c6cbc1ea35a8825601504c3c9405","","Mozilla/5.0 (Linux; Android 10; K) AppleWebKit/537.36 (KHTML, like Gecko) Chrome/114.0.0.0 Mobile Safari/537.36","WebKit","Chrome","114.0.0.0","AndroidOS","10","427825642","You will now practice providing groupings for the category: ANIMALS<br><br>","","","","","","",""
"null","null","","","html-keyboard-response","30","80663","0.0-6.0","95","10","2023-06-05 18:24:54","b580c6cbc1ea35a8825601504c3c9405","","Mozilla/5.0 (Linux; Android 10; K) AppleWebKit/537.36 (KHTML, like Gecko) Chrome/114.0.0.0 Mobile Safari/537.36","WebKit","Chrome","114.0.0.0","AndroidOS","10","427825642","<p style=""font-size: 48px;""></p>","","","","","","",""
"null","null","","","html-keyboard-response","31","81174","0.0-7.0-0.0","95","10","2023-06-05 18:24:54","b580c6cbc1ea35a8825601504c3c9405","","Mozilla/5.0 (Linux; Android 10; K) AppleWebKit/537.36 (KHTML, like Gecko) Chrome/114.0.0.0 Mobile Safari/537.36","WebKit","Chrome","114.0.0.0","AndroidOS","10","427825642","<p style=""font-size: 60px;"">+</p>","","","","","","",""
"","","practice","","html-button-response","32","81194","0.0-7.0-1.0-0.0","95","10","2023-06-05 18:24:54","b580c6cbc1ea35a8825601504c3c9405","","Mozilla/5.0 (Linux; Android 10; K) AppleWebKit/537.36 (KHTML, like Gecko) Chrome/114.0.0.0 Mobile Safari/537.36","WebKit","Chrome","114.0.0.0","AndroidOS","10","427825642","","HORSE","","","","","",""
"","","practice_attention","practice","survey-text","33","81219","0.0-7.0-2.0","95","10","2023-06-05 18:24:54","b580c6cbc1ea35a8825601504c3c9405","","Mozilla/5.0 (Linux; Android 10; K) AppleWebKit/537.36 (KHTML, like Gecko) Chrome/114.0.0.0 Mobile Safari/537.36","WebKit","Chrome","114.0.0.0","AndroidOS","10","427825642","","","animals","","","","",""
"null","null","","","html-keyboard-response","34","81743","0.0-7.0-0.1","95","10","2023-06-05 18:24:54","b580c6cbc1ea35a8825601504c3c9405","","Mozilla/5.0 (Linux; Android 10; K) AppleWebKit/537.36 (KHTML, like Gecko) Chrome/114.0.0.0 Mobile Safari/537.36","WebKit","Chrome","114.0.0.0","AndroidOS","10","427825642","<p style=""font-size: 60px;"">+</p>","","","","","","",""
"3009","0","practice","","html-button-response","35","84766","0.0-7.0-1.1-0.1","95","10","2023-06-05 18:24:54","b580c6cbc1ea35a8825601504c3c9405","","Mozilla/5.0 (Linux; Android 10; K) AppleWebKit/537.36 (KHTML, like Gecko) Chrome/114.0.0.0 Mobile Safari/537.36","WebKit","Chrome","114.0.0.0","AndroidOS","10","427825642","<span style='color:red; font-size:150%'> HORSE</span> <span style='color:black;font-size:150%'> - </span><span style='color:green;font-size:150%'>DONKEY</span> <br> <p> Would you put them in the same group?</p>","DONKEY","","","","","",""
"","","practice_attention","practice","survey-text","36","84777","0.0-7.0-2.1","95","10","2023-06-05 18:24:54","b580c6cbc1ea35a8825601504c3c9405","","Mozilla/5.0 (Linux; Android 10; K) AppleWebKit/537.36 (KHTML, like Gecko) Chrome/114.0.0.0 Mobile Safari/537.36","WebKit","Chrome","114.0.0.0","AndroidOS","10","427825642","","","animals","","","","",""
"null","null","","","html-keyboard-response","37","85286","0.0-7.0-0.2","95","10","2023-06-05 18:24:54","b580c6cbc1ea35a8825601504c3c9405","","Mozilla/5.0 (Linux; Android 10; K) AppleWebKit/537.36 (KHTML, like Gecko) Chrome/114.0.0.0 Mobile Safari/537.36","WebKit","Chrome","114.0.0.0","AndroidOS","10","427825642","<p style=""font-size: 60px;"">+</p>","","","","","","",""
"2675","0","practice","","html-button-response","38","87984","0.0-7.0-1.2-0.2","95","10","2023-06-05 18:24:54","b580c6cbc1ea35a8825601504c3c9405","","Mozilla/5.0 (Linux; Android 10; K) AppleWebKit/537.36 (KHTML, like Gecko) Chrome/114.0.0.0 Mobile Safari/537.36","WebKit","Chrome","114.0.0.0","AndroidOS","10","427825642","<span style='color:green; font-size:150%'> DONKEY</span> <span style='color:black;font-size:150%'> - </span><span style='color:blue;font-size:150%'>CALF</span> <br> <p> Would you put them in the same group?</p>","CALF","","","","","",""
"10364","calf","practice_attention","practice","survey-text","39","98365","0.0-7.0-2.2","95","10","2023-06-05 18:24:54","b580c6cbc1ea35a8825601504c3c9405","","Mozilla/5.0 (Linux; Android 10; K) AppleWebKit/537.36 (KHTML, like Gecko) Chrome/114.0.0.0 Mobile Safari/537.36","WebKit","Chrome","114.0.0.0","AndroidOS","10","427825642","","","animals","donkey, calf","1","","",""
"null","null","","","html-keyboard-response","40","99872","0.0-7.0-3.2-0.2","95","10","2023-06-05 18:24:54","b580c6cbc1ea35a8825601504c3c9405","","Mozilla/5.0 (Linux; Android 10; K) AppleWebKit/537.36 (KHTML, like Gecko) Chrome/114.0.0.0 Mobile Safari/537.36","WebKit","Chrome","114.0.0.0","AndroidOS","10","427825642","<span style='color:green; font-size:150%'>Correct!</span>","","","","","","",""
"null","null","","","html-keyboard-response","41","100406","0.0-7.0-0.3","95","10","2023-06-05 18:24:54","b580c6cbc1ea35a8825601504c3c9405","","Mozilla/5.0 (Linux; Android 10; K) AppleWebKit/537.36 (KHTML, like Gecko) Chrome/114.0.0.0 Mobile Safari/537.36","WebKit","Chrome","114.0.0.0","AndroidOS","10","427825642","<p style=""font-size: 60px;"">+</p>","","","","","","",""
"2292","0","practice","","html-button-response","42","102723","0.0-7.0-1.3-0.3","95","10","2023-06-05 18:24:54","b580c6cbc1ea35a8825601504c3c9405","","Mozilla/5.0 (Linux; Android 10; K) AppleWebKit/537.36 (KHTML, like Gecko) Chrome/114.0.0.0 Mobile Safari/537.36","WebKit","Chrome","114.0.0.0","AndroidOS","10","427825642","<span style='color:blue; font-size:150%'> CALF</span> <span style='color:black;font-size:150%'> - </span><span style='color:red;font-size:150%'>COW</span> <br> <p> Would you put them in the same group?</p>","COW","","","","","",""
"","","practice_attention","practice","survey-text","43","102731","0.0-7.0-2.3","95","10","2023-06-05 18:24:54","b580c6cbc1ea35a8825601504c3c9405","","Mozilla/5.0 (Linux; Android 10; K) AppleWebKit/537.36 (KHTML, like Gecko) Chrome/114.0.0.0 Mobile Safari/537.36","WebKit","Chrome","114.0.0.0","AndroidOS","10","427825642","","","animals","","","","",""
"null","null","","","html-keyboard-response","44","103238","0.0-7.0-0.4","95","10","2023-06-05 18:24:54","b580c6cbc1ea35a8825601504c3c9405","","Mozilla/5.0 (Linux; Android 10; K) AppleWebKit/537.36 (KHTML, like Gecko) Chrome/114.0.0.0 Mobile Safari/537.36","WebKit","Chrome","114.0.0.0","AndroidOS","10","427825642","<p style=""font-size: 60px;"">+</p>","","","","","","",""
"2534","0","practice","","html-button-response","45","105784","0.0-7.0-1.4-0.4","95","10","2023-06-05 18:24:54","b580c6cbc1ea35a8825601504c3c9405","","Mozilla/5.0 (Linux; Android 10; K) AppleWebKit/537.36 (KHTML, like Gecko) Chrome/114.0.0.0 Mobile Safari/537.36","WebKit","Chrome","114.0.0.0","AndroidOS","10","427825642","<span style='color:red; font-size:150%'> COW</span> <span style='color:black;font-size:150%'> - </span><span style='color:green;font-size:150%'>HOLSTEIN_COW</span> <br> <p> Would you put them in the same group?</p>","HOLSTEIN_COW","","","","","",""
"","","practice_attention","practice","survey-text","46","105799","0.0-7.0-2.4","95","10","2023-06-05 18:24:54","b580c6cbc1ea35a8825601504c3c9405","","Mozilla/5.0 (Linux; Android 10; K) AppleWebKit/537.36 (KHTML, like Gecko) Chrome/114.0.0.0 Mobile Safari/537.36","WebKit","Chrome","114.0.0.0","AndroidOS","10","427825642","","","animals","","","","",""
"null","null","","","html-keyboard-response","47","106310","0.0-7.0-0.5","95","10","2023-06-05 18:24:54","b580c6cbc1ea35a8825601504c3c9405","","Mozilla/5.0 (Linux; Android 10; K) AppleWebKit/537.36 (KHTML, like Gecko) Chrome/114.0.0.0 Mobile Safari/537.36","WebKit","Chrome","114.0.0.0","AndroidOS","10","427825642","<p style=""font-size: 60px;"">+</p>","","","","","","",""
"2430","1","practice","","html-button-response","48","108750","0.0-7.0-1.5-0.5","95","10","2023-06-05 18:24:54","b580c6cbc1ea35a8825601504c3c9405","","Mozilla/5.0 (Linux; Android 10; K) AppleWebKit/537.36 (KHTML, like Gecko) Chrome/114.0.0.0 Mobile Safari/537.36","WebKit","Chrome","114.0.0.0","AndroidOS","10","427825642","<span style='color:green; font-size:150%'> HOLSTEIN_COW</span> <span style='color:black;font-size:150%'> - </span><span style='color:blue;font-size:150%'>KOALA</span> <br> <p> Would you put them in the same group?</p>","KOALA","","","","","",""
"","","practice_attention","practice","survey-text","49","108760","0.0-7.0-2.5","95","10","2023-06-05 18:24:54","b580c6cbc1ea35a8825601504c3c9405","","Mozilla/5.0 (Linux; Android 10; K) AppleWebKit/537.36 (KHTML, like Gecko) Chrome/114.0.0.0 Mobile Safari/537.36","WebKit","Chrome","114.0.0.0","AndroidOS","10","427825642","","","animals","","","","",""
"1255","0","","","html-button-response","50","110020","0.0-8.0","95","10","2023-06-05 18:24:54","b580c6cbc1ea35a8825601504c3c9405","","Mozilla/5.0 (Linux; Android 10; K) AppleWebKit/537.36 (KHTML, like Gecko) Chrome/114.0.0.0 Mobile Safari/537.36","WebKit","Chrome","114.0.0.0","AndroidOS","10","427825642","You will now practice providing groupings for the category: FOODS<br><br>","","","","","","",""
"null","null","","","html-keyboard-response","51","110027","0.0-9.0","95","10","2023-06-05 18:24:54","b580c6cbc1ea35a8825601504c3c9405","","Mozilla/5.0 (Linux; Android 10; K) AppleWebKit/537.36 (KHTML, like Gecko) Chrome/114.0.0.0 Mobile Safari/537.36","WebKit","Chrome","114.0.0.0","AndroidOS","10","427825642","<p style=""font-size: 48px;""></p>","","","","","","",""
"null","null","","","html-keyboard-response","52","110535","0.0-10.0-0.0","95","10","2023-06-05 18:24:54","b580c6cbc1ea35a8825601504c3c9405","","Mozilla/5.0 (Linux; Android 10; K) AppleWebKit/537.36 (KHTML, like Gecko) Chrome/114.0.0.0 Mobile Safari/537.36","WebKit","Chrome","114.0.0.0","AndroidOS","10","427825642","<p style=""font-size: 60px;"">+</p>","","","","","","",""
"","","practice","","html-button-response","53","110555","0.0-10.0-1.0-0.0","95","10","2023-06-05 18:24:54","b580c6cbc1ea35a8825601504c3c9405","","Mozilla/5.0 (Linux; Android 10; K) AppleWebKit/537.36 (KHTML, like Gecko) Chrome/114.0.0.0 Mobile Safari/537.36","WebKit","Chrome","114.0.0.0","AndroidOS","10","427825642","","LEMON","","","","","",""
"","","practice_attention","practice","survey-text","54","110577","0.0-10.0-2.0","95","10","2023-06-05 18:24:54","b580c6cbc1ea35a8825601504c3c9405","","Mozilla/5.0 (Linux; Android 10; K) AppleWebKit/537.36 (KHTML, like Gecko) Chrome/114.0.0.0 Mobile Safari/537.36","WebKit","Chrome","114.0.0.0","AndroidOS","10","427825642","","","foods","","","","",""
"null","null","","","html-keyboard-response","55","111093","0.0-10.0-0.1","95","10","2023-06-05 18:24:54","b580c6cbc1ea35a8825601504c3c9405","","Mozilla/5.0 (Linux; Android 10; K) AppleWebKit/537.36 (KHTML, like Gecko) Chrome/114.0.0.0 Mobile Safari/537.36","WebKit","Chrome","114.0.0.0","AndroidOS","10","427825642","<p style=""font-size: 60px;"">+</p>","","","","","","",""
"2227","0","practice","","html-button-response","56","113330","0.0-10.0-1.1-0.1","95","10","2023-06-05 18:24:54","b580c6cbc1ea35a8825601504c3c9405","","Mozilla/5.0 (Linux; Android 10; K) AppleWebKit/537.36 (KHTML, like Gecko) Chrome/114.0.0.0 Mobile Safari/537.36","WebKit","Chrome","114.0.0.0","AndroidOS","10","427825642","<span style='color:red; font-size:150%'> LEMON</span> <span style='color:black;font-size:150%'> - </span><span style='color:green;font-size:150%'>BANANA</span> <br> <p> Would you put them in the same group?</p>","BANANA","","","","","",""
"","","practice_attention","practice","survey-text","57","113344","0.0-10.0-2.1","95","10","2023-06-05 18:24:54","b580c6cbc1ea35a8825601504c3c9405","","Mozilla/5.0 (Linux; Android 10; K) AppleWebKit/537.36 (KHTML, like Gecko) Chrome/114.0.0.0 Mobile Safari/537.36","WebKit","Chrome","114.0.0.0","AndroidOS","10","427825642","","","foods","","","","",""
"null","null","","","html-keyboard-response","58","113854","0.0-10.0-0.2","95","10","2023-06-05 18:24:54","b580c6cbc1ea35a8825601504c3c9405","","Mozilla/5.0 (Linux; Android 10; K) AppleWebKit/537.36 (KHTML, like Gecko) Chrome/114.0.0.0 Mobile Safari/537.36","WebKit","Chrome","114.0.0.0","AndroidOS","10","427825642","<p style=""font-size: 60px;"">+</p>","","","","","","",""
"1325","1","practice","","html-button-response","59","115190","0.0-10.0-1.2-0.2","95","10","2023-06-05 18:24:54","b580c6cbc1ea35a8825601504c3c9405","","Mozilla/5.0 (Linux; Android 10; K) AppleWebKit/537.36 (KHTML, like Gecko) Chrome/114.0.0.0 Mobile Safari/537.36","WebKit","Chrome","114.0.0.0","AndroidOS","10","427825642","<span style='color:green; font-size:150%'> BANANA</span> <span style='color:black;font-size:150%'> - </span><span style='color:blue;font-size:150%'>PASTA</span> <br> <p> Would you put them in the same group?</p>","PASTA","","","","","",""
"7219","pasta","practice_attention","practice","survey-text","60","122422","0.0-10.0-2.2","95","10","2023-06-05 18:24:54","b580c6cbc1ea35a8825601504c3c9405","","Mozilla/5.0 (Linux; Android 10; K) AppleWebKit/537.36 (KHTML, like Gecko) Chrome/114.0.0.0 Mobile Safari/537.36","WebKit","Chrome","114.0.0.0","AndroidOS","10","427825642","","","foods","banana, pasta","1","","",""
"null","null","","","html-keyboard-response","61","123943","0.0-10.0-3.2-0.2","95","10","2023-06-05 18:24:54","b580c6cbc1ea35a8825601504c3c9405","","Mozilla/5.0 (Linux; Android 10; K) AppleWebKit/537.36 (KHTML, like Gecko) Chrome/114.0.0.0 Mobile Safari/537.36","WebKit","Chrome","114.0.0.0","AndroidOS","10","427825642","<span style='color:green; font-size:150%'>Correct!</span>","","","","","","",""
"null","null","","","html-keyboard-response","62","124479","0.0-10.0-0.3","95","10","2023-06-05 18:24:54","b580c6cbc1ea35a8825601504c3c9405","","Mozilla/5.0 (Linux; Android 10; K) AppleWebKit/537.36 (KHTML, like Gecko) Chrome/114.0.0.0 Mobile Safari/537.36","WebKit","Chrome","114.0.0.0","AndroidOS","10","427825642","<p style=""font-size: 60px;"">+</p>","","","","","","",""
"2656","1","practice","","html-button-response","63","127170","0.0-10.0-1.3-0.3","95","10","2023-06-05 18:24:54","b580c6cbc1ea35a8825601504c3c9405","","Mozilla/5.0 (Linux; Android 10; K) AppleWebKit/537.36 (KHTML, like Gecko) Chrome/114.0.0.0 Mobile Safari/537.36","WebKit","Chrome","114.0.0.0","AndroidOS","10","427825642","<span style='color:blue; font-size:150%'> PASTA</span> <span style='color:black;font-size:150%'> - </span><span style='color:red;font-size:150%'>SALAD</span> <br> <p> Would you put them in the same group?</p>","SALAD","","","","","",""
"","","practice_attention","practice","survey-text","64","127182","0.0-10.0-2.3","95","10","2023-06-05 18:24:54","b580c6cbc1ea35a8825601504c3c9405","","Mozilla/5.0 (Linux; Android 10; K) AppleWebKit/537.36 (KHTML, like Gecko) Chrome/114.0.0.0 Mobile Safari/537.36","WebKit","Chrome","114.0.0.0","AndroidOS","10","427825642","","","foods","","","","",""
"11361","0","","","html-button-response","65","138557","0.0-11.0","95","10","2023-06-05 18:24:54","b580c6cbc1ea35a8825601504c3c9405","","Mozilla/5.0 (Linux; Android 10; K) AppleWebKit/537.36 (KHTML, like Gecko) Chrome/114.0.0.0 Mobile Safari/537.36","WebKit","Chrome","114.0.0.0","AndroidOS","10","427825642","<p>Thank you for completing these practice lists. You will now move on to the actual experiment, where there will be more words to group. </p>
        <p>Word pairs may be repeated, and there may also be words that are new to you in this task. </p>
        <p>In these cases, please use your best judgment to make the decisions.</p>
        <p> <b>Please pay attention, your careful responses are important for our research.</b>  </p>
        <p> To ensure you are paying attention, you will also be asked to type in the words you group at random points during the experiment. You will not be provided feedback on your responses.</p>
        <p> <b>Your submission will be returned if you fail more than two attention checks!</b> </p>
         <p>Please indicate the pairings as well as you can! Click the button below to continue.</p>","","","","","","",""
"1425","0","","","html-button-response","66","139994","0.0-12.0","95","10","2023-06-05 18:24:54","b580c6cbc1ea35a8825601504c3c9405","","Mozilla/5.0 (Linux; Android 10; K) AppleWebKit/537.36 (KHTML, like Gecko) Chrome/114.0.0.0 Mobile Safari/537.36","WebKit","Chrome","114.0.0.0","AndroidOS","10","427825642","You will now provide groupings for the category: ANIMALS<br><br>","","","","","","",""
"null","null","","","html-keyboard-response","67","140013","0.0-13.0","95","10","2023-06-05 18:24:54","b580c6cbc1ea35a8825601504c3c9405","","Mozilla/5.0 (Linux; Android 10; K) AppleWebKit/537.36 (KHTML, like Gecko) Chrome/114.0.0.0 Mobile Safari/537.36","WebKit","Chrome","114.0.0.0","AndroidOS","10","427825642","<p style=""font-size: 48px;""></p>","","","","","","",""
"null","null","","","html-keyboard-response","68","140526","0.0-14.0-0.0","95","10","2023-06-05 18:24:54","b580c6cbc1ea35a8825601504c3c9405","","Mozilla/5.0 (Linux; Android 10; K) AppleWebKit/537.36 (KHTML, like Gecko) Chrome/114.0.0.0 Mobile Safari/537.36","WebKit","Chrome","114.0.0.0","AndroidOS","10","427825642","<p style=""font-size: 60px;"">+</p>","","","","","","",""
"","2","comparison","50008","html-button-response","69","140534","0.0-14.0-1.0-0.0","95","10","2023-06-05 18:24:54","b580c6cbc1ea35a8825601504c3c9405","","Mozilla/5.0 (Linux; Android 10; K) AppleWebKit/537.36 (KHTML, like Gecko) Chrome/114.0.0.0 Mobile Safari/537.36","WebKit","Chrome","114.0.0.0","AndroidOS","10","427825642","","AARDVARK","animals","","","1","",""
"","","attention","50008","survey-text","70","140547","0.0-14.0-2.0","95","10","2023-06-05 18:24:54","b580c6cbc1ea35a8825601504c3c9405","","Mozilla/5.0 (Linux; Android 10; K) AppleWebKit/537.36 (KHTML, like Gecko) Chrome/114.0.0.0 Mobile Safari/537.36","WebKit","Chrome","114.0.0.0","AndroidOS","10","427825642","","","animals","","","","",""
"null","null","","","html-keyboard-response","71","141061","0.0-14.0-0.1","95","10","2023-06-05 18:24:54","b580c6cbc1ea35a8825601504c3c9405","","Mozilla/5.0 (Linux; Android 10; K) AppleWebKit/537.36 (KHTML, like Gecko) Chrome/114.0.0.0 Mobile Safari/537.36","WebKit","Chrome","114.0.0.0","AndroidOS","10","427825642","<p style=""font-size: 60px;"">+</p>","","","","","","",""
"2868","1","comparison","50008","html-button-response","72","143937","0.0-14.0-1.1-0.1","95","10","2023-06-05 18:24:54","b580c6cbc1ea35a8825601504c3c9405","","Mozilla/5.0 (Linux; Android 10; K) AppleWebKit/537.36 (KHTML, like Gecko) Chrome/114.0.0.0 Mobile Safari/537.36","WebKit","Chrome","114.0.0.0","AndroidOS","10","427825642","<span style='color:red; font-size:150%'> AARDVARK</span> <span style='color:black;font-size:150%'> - </span><span style='color:green;font-size:150%'>BUNNY</span> <br> <p> Would you put them in the same group?</p>","BUNNY","animals","aardvark, hello","","2","",""
"","","attention","50008","survey-text","73","143943","0.0-14.0-2.1","95","10","2023-06-05 18:24:54","b580c6cbc1ea35a8825601504c3c9405","","Mozilla/5.0 (Linux; Android 10; K) AppleWebKit/537.36 (KHTML, like Gecko) Chrome/114.0.0.0 Mobile Safari/537.36","WebKit","Chrome","114.0.0.0","AndroidOS","10","427825642","","","animals","","","","",""
"null","null","","","html-keyboard-response","74","144453","0.0-14.0-0.2","95","10","2023-06-05 18:24:54","b580c6cbc1ea35a8825601504c3c9405","","Mozilla/5.0 (Linux; Android 10; K) AppleWebKit/537.36 (KHTML, like Gecko) Chrome/114.0.0.0 Mobile Safari/537.36","WebKit","Chrome","114.0.0.0","AndroidOS","10","427825642","<p style=""font-size: 60px;"">+</p>","","","","","","",""
"1789","1","comparison","50008","html-button-response","75","146257","0.0-14.0-1.2-0.2","95","10","2023-06-05 18:24:54","b580c6cbc1ea35a8825601504c3c9405","","Mozilla/5.0 (Linux; Android 10; K) AppleWebKit/537.36 (KHTML, like Gecko) Chrome/114.0.0.0 Mobile Safari/537.36","WebKit","Chrome","114.0.0.0","AndroidOS","10","427825642","<span style='color:green; font-size:150%'> BUNNY</span> <span style='color:black;font-size:150%'> - </span><span style='color:blue;font-size:150%'>CAT</span> <br> <p> Would you put them in the same group?</p>","CAT","animals","bunny, cat","","3","",""
"","","attention","50008","survey-text","76","146262","0.0-14.0-2.2","95","10","2023-06-05 18:24:54","b580c6cbc1ea35a8825601504c3c9405","","Mozilla/5.0 (Linux; Android 10; K) AppleWebKit/537.36 (KHTML, like Gecko) Chrome/114.0.0.0 Mobile Safari/537.36","WebKit","Chrome","114.0.0.0","AndroidOS","10","427825642","","","animals","","","","",""
"null","null","","","html-keyboard-response","77","146774","0.0-14.0-0.3","95","10","2023-06-05 18:24:54","b580c6cbc1ea35a8825601504c3c9405","","Mozilla/5.0 (Linux; Android 10; K) AppleWebKit/537.36 (KHTML, like Gecko) Chrome/114.0.0.0 Mobile Safari/537.36","WebKit","Chrome","114.0.0.0","AndroidOS","10","427825642","<p style=""font-size: 60px;"">+</p>","","","","","","",""
"1340","0","comparison","50008","html-button-response","78","148133","0.0-14.0-1.3-0.3","95","10","2023-06-05 18:24:54","b580c6cbc1ea35a8825601504c3c9405","","Mozilla/5.0 (Linux; Android 10; K) AppleWebKit/537.36 (KHTML, like Gecko) Chrome/114.0.0.0 Mobile Safari/537.36","WebKit","Chrome","114.0.0.0","AndroidOS","10","427825642","<span style='color:blue; font-size:150%'> CAT</span> <span style='color:black;font-size:150%'> - </span><span style='color:red;font-size:150%'>DOG</span> <br> <p> Would you put them in the same group?</p>","DOG","animals","cat, dog","","4","",""
"","","attention","50008","survey-text","79","148152","0.0-14.0-2.3","95","10","2023-06-05 18:24:54","b580c6cbc1ea35a8825601504c3c9405","","Mozilla/5.0 (Linux; Android 10; K) AppleWebKit/537.36 (KHTML, like Gecko) Chrome/114.0.0.0 Mobile Safari/537.36","WebKit","Chrome","114.0.0.0","AndroidOS","10","427825642","","","animals","","","","",""
"null","null","","","html-keyboard-response","80","148670","0.0-14.0-0.4","95","10","2023-06-05 18:24:54","b580c6cbc1ea35a8825601504c3c9405","","Mozilla/5.0 (Linux; Android 10; K) AppleWebKit/537.36 (KHTML, like Gecko) Chrome/114.0.0.0 Mobile Safari/537.36","WebKit","Chrome","114.0.0.0","AndroidOS","10","427825642","<p style=""font-size: 60px;"">+</p>","","","","","","",""
"1345","1","comparison","50008","html-button-response","81","150039","0.0-14.0-1.4-0.4","95","10","2023-06-05 18:24:54","b580c6cbc1ea35a8825601504c3c9405","","Mozilla/5.0 (Linux; Android 10; K) AppleWebKit/537.36 (KHTML, like Gecko) Chrome/114.0.0.0 Mobile Safari/537.36","WebKit","Chrome","114.0.0.0","AndroidOS","10","427825642","<span style='color:red; font-size:150%'> DOG</span> <span style='color:black;font-size:150%'> - </span><span style='color:green;font-size:150%'>ELEPHANT</span> <br> <p> Would you put them in the same group?</p>","ELEPHANT","animals","dog, elephant","","5","",""
"","","attention","50008","survey-text","82","150059","0.0-14.0-2.4","95","10","2023-06-05 18:24:54","b580c6cbc1ea35a8825601504c3c9405","","Mozilla/5.0 (Linux; Android 10; K) AppleWebKit/537.36 (KHTML, like Gecko) Chrome/114.0.0.0 Mobile Safari/537.36","WebKit","Chrome","114.0.0.0","AndroidOS","10","427825642","","","animals","","","","",""
"null","null","","","html-keyboard-response","83","150585","0.0-14.0-0.5","95","10","2023-06-05 18:24:54","b580c6cbc1ea35a8825601504c3c9405","","Mozilla/5.0 (Linux; Android 10; K) AppleWebKit/537.36 (KHTML, like Gecko) Chrome/114.0.0.0 Mobile Safari/537.36","WebKit","Chrome","114.0.0.0","AndroidOS","10","427825642","<p style=""font-size: 60px;"">+</p>","","","","","","",""
"2735","1","comparison","50008","html-button-response","84","153361","0.0-14.0-1.5-0.5","95","10","2023-06-05 18:24:54","b580c6cbc1ea35a8825601504c3c9405","","Mozilla/5.0 (Linux; Android 10; K) AppleWebKit/537.36 (KHTML, like Gecko) Chrome/114.0.0.0 Mobile Safari/537.36","WebKit","Chrome","114.0.0.0","AndroidOS","10","427825642","<span style='color:green; font-size:150%'> ELEPHANT</span> <span style='color:black;font-size:150%'> - </span><span style='color:blue;font-size:150%'>RAT</span> <br> <p> Would you put them in the same group?</p>","RAT","animals","elephant, rat","","6","",""
"","","attention","50008","survey-text","85","153382","0.0-14.0-2.5","95","10","2023-06-05 18:24:54","b580c6cbc1ea35a8825601504c3c9405","","Mozilla/5.0 (Linux; Android 10; K) AppleWebKit/537.36 (KHTML, like Gecko) Chrome/114.0.0.0 Mobile Safari/537.36","WebKit","Chrome","114.0.0.0","AndroidOS","10","427825642","","","animals","","","","",""
"null","null","","","html-keyboard-response","86","153903","0.0-14.0-0.6","95","10","2023-06-05 18:24:54","b580c6cbc1ea35a8825601504c3c9405","","Mozilla/5.0 (Linux; Android 10; K) AppleWebKit/537.36 (KHTML, like Gecko) Chrome/114.0.0.0 Mobile Safari/537.36","WebKit","Chrome","114.0.0.0","AndroidOS","10","427825642","<p style=""font-size: 60px;"">+</p>","","","","","","",""
"1294","0","comparison","50008","html-button-response","87","155225","0.0-14.0-1.6-0.6","95","10","2023-06-05 18:24:54","b580c6cbc1ea35a8825601504c3c9405","","Mozilla/5.0 (Linux; Android 10; K) AppleWebKit/537.36 (KHTML, like Gecko) Chrome/114.0.0.0 Mobile Safari/537.36","WebKit","Chrome","114.0.0.0","AndroidOS","10","427825642","<span style='color:blue; font-size:150%'> RAT</span> <span style='color:black;font-size:150%'> - </span><span style='color:red;font-size:150%'>MOUSE</span> <br> <p> Would you put them in the same group?</p>","MOUSE","animals","rat, mouse","","7","",""
"6062","rat","attention","50008","survey-text","88","161307","0.0-14.0-2.6","95","10","2023-06-05 18:24:54","b580c6cbc1ea35a8825601504c3c9405","","Mozilla/5.0 (Linux; Android 10; K) AppleWebKit/537.36 (KHTML, like Gecko) Chrome/114.0.0.0 Mobile Safari/537.36","WebKit","Chrome","114.0.0.0","AndroidOS","10","427825642","","","animals","rat, mouse","1","","",""
"null","null","","","html-keyboard-response","89","161823","0.0-14.0-0.7","95","10","2023-06-05 18:24:54","b580c6cbc1ea35a8825601504c3c9405","","Mozilla/5.0 (Linux; Android 10; K) AppleWebKit/537.36 (KHTML, like Gecko) Chrome/114.0.0.0 Mobile Safari/537.36","WebKit","Chrome","114.0.0.0","AndroidOS","10","427825642","<p style=""font-size: 60px;"">+</p>","","","","","","",""
"5608","0","comparison","50008","html-button-response","90","167477","0.0-14.0-1.7-0.7","95","10","2023-06-05 18:24:54","b580c6cbc1ea35a8825601504c3c9405","","Mozilla/5.0 (Linux; Android 10; K) AppleWebKit/537.36 (KHTML, like Gecko) Chrome/114.0.0.0 Mobile Safari/537.36","WebKit","Chrome","114.0.0.0","AndroidOS","10","427825642","<span style='color:red; font-size:150%'> MOUSE</span> <span style='color:black;font-size:150%'> - </span><span style='color:green;font-size:150%'>MARMOSET</span> <br> <p> Would you put them in the same group?</p>","MARMOSET","animals","mouse, marmoset","","8","",""
"","","attention","50008","survey-text","91","167483","0.0-14.0-2.7","95","10","2023-06-05 18:24:54","b580c6cbc1ea35a8825601504c3c9405","","Mozilla/5.0 (Linux; Android 10; K) AppleWebKit/537.36 (KHTML, like Gecko) Chrome/114.0.0.0 Mobile Safari/537.36","WebKit","Chrome","114.0.0.0","AndroidOS","10","427825642","","","animals","","","","",""
"null","null","","","html-keyboard-response","92","167998","0.0-14.0-0.8","95","10","2023-06-05 18:24:54","b580c6cbc1ea35a8825601504c3c9405","","Mozilla/5.0 (Linux; Android 10; K) AppleWebKit/537.36 (KHTML, like Gecko) Chrome/114.0.0.0 Mobile Safari/537.36","WebKit","Chrome","114.0.0.0","AndroidOS","10","427825642","<p style=""font-size: 60px;"">+</p>","","","","","","",""
"2687","1","comparison","50008","html-button-response","93","170706","0.0-14.0-1.8-0.8","95","10","2023-06-05 18:24:54","b580c6cbc1ea35a8825601504c3c9405","","Mozilla/5.0 (Linux; Android 10; K) AppleWebKit/537.36 (KHTML, like Gecko) Chrome/114.0.0.0 Mobile Safari/537.36","WebKit","Chrome","114.0.0.0","AndroidOS","10","427825642","<span style='color:green; font-size:150%'> MARMOSET</span> <span style='color:black;font-size:150%'> - </span><span style='color:blue;font-size:150%'>BUSHBABY</span> <br> <p> Would you put them in the same group?</p>","BUSHBABY","animals","marmoset, bushbaby","","9","",""
"","","attention","50008","survey-text","94","170726","0.0-14.0-2.8","95","10","2023-06-05 18:24:54","b580c6cbc1ea35a8825601504c3c9405","","Mozilla/5.0 (Linux; Android 10; K) AppleWebKit/537.36 (KHTML, like Gecko) Chrome/114.0.0.0 Mobile Safari/537.36","WebKit","Chrome","114.0.0.0","AndroidOS","10","427825642","","","animals","","","","",""
"null","null","","","html-keyboard-response","95","171247","0.0-14.0-0.9","95","10","2023-06-05 18:24:54","b580c6cbc1ea35a8825601504c3c9405","","Mozilla/5.0 (Linux; Android 10; K) AppleWebKit/537.36 (KHTML, like Gecko) Chrome/114.0.0.0 Mobile Safari/537.36","WebKit","Chrome","114.0.0.0","AndroidOS","10","427825642","<p style=""font-size: 60px;"">+</p>","","","","","","",""
"1860","1","comparison","50008","html-button-response","96","173141","0.0-14.0-1.9-0.9","95","10","2023-06-05 18:24:54","b580c6cbc1ea35a8825601504c3c9405","","Mozilla/5.0 (Linux; Android 10; K) AppleWebKit/537.36 (KHTML, like Gecko) Chrome/114.0.0.0 Mobile Safari/537.36","WebKit","Chrome","114.0.0.0","AndroidOS","10","427825642","<span style='color:blue; font-size:150%'> BUSHBABY</span> <span style='color:black;font-size:150%'> - </span><span style='color:red;font-size:150%'>SNAKE</span> <br> <p> Would you put them in the same group?</p>","SNAKE","animals","bushbaby, snake","","10","",""
"","","attention","50008","survey-text","97","173163","0.0-14.0-2.9","95","10","2023-06-05 18:24:54","b580c6cbc1ea35a8825601504c3c9405","","Mozilla/5.0 (Linux; Android 10; K) AppleWebKit/537.36 (KHTML, like Gecko) Chrome/114.0.0.0 Mobile Safari/537.36","WebKit","Chrome","114.0.0.0","AndroidOS","10","427825642","","","animals","","","","",""
"null","null","","","html-keyboard-response","98","173687","0.0-14.0-0.10","95","10","2023-06-05 18:24:54","b580c6cbc1ea35a8825601504c3c9405","","Mozilla/5.0 (Linux; Android 10; K) AppleWebKit/537.36 (KHTML, like Gecko) Chrome/114.0.0.0 Mobile Safari/537.36","WebKit","Chrome","114.0.0.0","AndroidOS","10","427825642","<p style=""font-size: 60px;"">+</p>","","","","","","",""
"1383","1","comparison","50008","html-button-response","99","175116","0.0-14.0-1.10-0.10","95","10","2023-06-05 18:24:54","b580c6cbc1ea35a8825601504c3c9405","","Mozilla/5.0 (Linux; Android 10; K) AppleWebKit/537.36 (KHTML, like Gecko) Chrome/114.0.0.0 Mobile Safari/537.36","WebKit","Chrome","114.0.0.0","AndroidOS","10","427825642","<span style='color:red; font-size:150%'> SNAKE</span> <span style='color:black;font-size:150%'> - </span><span style='color:green;font-size:150%'>DONKEY</span> <br> <p> Would you put them in the same group?</p>","DONKEY","animals","snake, donkey","","11","",""
"","","attention","50008","survey-text","100","175137","0.0-14.0-2.10","95","10","2023-06-05 18:24:54","b580c6cbc1ea35a8825601504c3c9405","","Mozilla/5.0 (Linux; Android 10; K) AppleWebKit/537.36 (KHTML, like Gecko) Chrome/114.0.0.0 Mobile Safari/537.36","WebKit","Chrome","114.0.0.0","AndroidOS","10","427825642","","","animals","","","","",""
"null","null","","","html-keyboard-response","101","175655","0.0-14.0-0.11","95","10","2023-06-05 18:24:54","b580c6cbc1ea35a8825601504c3c9405","","Mozilla/5.0 (Linux; Android 10; K) AppleWebKit/537.36 (KHTML, like Gecko) Chrome/114.0.0.0 Mobile Safari/537.36","WebKit","Chrome","114.0.0.0","AndroidOS","10","427825642","<p style=""font-size: 60px;"">+</p>","","","","","","",""
"1371","1","comparison","50008","html-button-response","102","177070","0.0-14.0-1.11-0.11","95","10","2023-06-05 18:24:54","b580c6cbc1ea35a8825601504c3c9405","","Mozilla/5.0 (Linux; Android 10; K) AppleWebKit/537.36 (KHTML, like Gecko) Chrome/114.0.0.0 Mobile Safari/537.36","WebKit","Chrome","114.0.0.0","AndroidOS","10","427825642","<span style='color:green; font-size:150%'> DONKEY</span> <span style='color:black;font-size:150%'> - </span><span style='color:blue;font-size:150%'>MAMMOTH</span> <br> <p> Would you put them in the same group?</p>","MAMMOTH","animals","donkey, mammoth","","12","",""
"","","attention","50008","survey-text","103","177078","0.0-14.0-2.11","95","10","2023-06-05 18:24:54","b580c6cbc1ea35a8825601504c3c9405","","Mozilla/5.0 (Linux; Android 10; K) AppleWebKit/537.36 (KHTML, like Gecko) Chrome/114.0.0.0 Mobile Safari/537.36","WebKit","Chrome","114.0.0.0","AndroidOS","10","427825642","","","animals","","","","",""
"null","null","","","html-keyboard-response","104","177590","0.0-14.0-0.12","95","10","2023-06-05 18:24:54","b580c6cbc1ea35a8825601504c3c9405","","Mozilla/5.0 (Linux; Android 10; K) AppleWebKit/537.36 (KHTML, like Gecko) Chrome/114.0.0.0 Mobile Safari/537.36","WebKit","Chrome","114.0.0.0","AndroidOS","10","427825642","<p style=""font-size: 60px;"">+</p>","","","","","","",""
"1398","0","comparison","50008","html-button-response","105","179013","0.0-14.0-1.12-0.12","95","10","2023-06-05 18:24:54","b580c6cbc1ea35a8825601504c3c9405","","Mozilla/5.0 (Linux; Android 10; K) AppleWebKit/537.36 (KHTML, like Gecko) Chrome/114.0.0.0 Mobile Safari/537.36","WebKit","Chrome","114.0.0.0","AndroidOS","10","427825642","<span style='color:blue; font-size:150%'> MAMMOTH</span> <span style='color:black;font-size:150%'> - </span><span style='color:red;font-size:150%'>ELEPHANT</span> <br> <p> Would you put them in the same group?</p>","ELEPHANT","animals","mammoth, elephant","","13","",""
"","","attention","50008","survey-text","106","179020","0.0-14.0-2.12","95","10","2023-06-05 18:24:54","b580c6cbc1ea35a8825601504c3c9405","","Mozilla/5.0 (Linux; Android 10; K) AppleWebKit/537.36 (KHTML, like Gecko) Chrome/114.0.0.0 Mobile Safari/537.36","WebKit","Chrome","114.0.0.0","AndroidOS","10","427825642","","","animals","","","","",""
"null","null","","","html-keyboard-response","107","179526","0.0-14.0-0.13","95","10","2023-06-05 18:24:54","b580c6cbc1ea35a8825601504c3c9405","","Mozilla/5.0 (Linux; Android 10; K) AppleWebKit/537.36 (KHTML, like Gecko) Chrome/114.0.0.0 Mobile Safari/537.36","WebKit","Chrome","114.0.0.0","AndroidOS","10","427825642","<p style=""font-size: 60px;"">+</p>","","","","","","",""
"2452","0","comparison","50008","html-button-response","108","182011","0.0-14.0-1.13-0.13","95","10","2023-06-05 18:24:54","b580c6cbc1ea35a8825601504c3c9405","","Mozilla/5.0 (Linux; Android 10; K) AppleWebKit/537.36 (KHTML, like Gecko) Chrome/114.0.0.0 Mobile Safari/537.36","WebKit","Chrome","114.0.0.0","AndroidOS","10","427825642","<span style='color:red; font-size:150%'> ELEPHANT</span> <span style='color:black;font-size:150%'> - </span><span style='color:green;font-size:150%'>RHINO</span> <br> <p> Would you put them in the same group?</p>","RHINO","animals","elephant, rhino","","14","",""
"","","attention","50008","survey-text","109","182023","0.0-14.0-2.13","95","10","2023-06-05 18:24:54","b580c6cbc1ea35a8825601504c3c9405","","Mozilla/5.0 (Linux; Android 10; K) AppleWebKit/537.36 (KHTML, like Gecko) Chrome/114.0.0.0 Mobile Safari/537.36","WebKit","Chrome","114.0.0.0","AndroidOS","10","427825642","","","animals","","","","",""
"null","null","","","html-keyboard-response","110","182534","0.0-14.0-0.14","95","10","2023-06-05 18:24:54","b580c6cbc1ea35a8825601504c3c9405","","Mozilla/5.0 (Linux; Android 10; K) AppleWebKit/537.36 (KHTML, like Gecko) Chrome/114.0.0.0 Mobile Safari/537.36","WebKit","Chrome","114.0.0.0","AndroidOS","10","427825642","<p style=""font-size: 60px;"">+</p>","","","","","","",""
"2123","1","comparison","50008","html-button-response","111","184680","0.0-14.0-1.14-0.14","95","10","2023-06-05 18:24:54","b580c6cbc1ea35a8825601504c3c9405","","Mozilla/5.0 (Linux; Android 10; K) AppleWebKit/537.36 (KHTML, like Gecko) Chrome/114.0.0.0 Mobile Safari/537.36","WebKit","Chrome","114.0.0.0","AndroidOS","10","427825642","<span style='color:green; font-size:150%'> RHINO</span> <span style='color:black;font-size:150%'> - </span><span style='color:blue;font-size:150%'>TIGER</span> <br> <p> Would you put them in the same group?</p>","TIGER","animals","rhino, tiger","","15","",""
"","","attention","50008","survey-text","112","184702","0.0-14.0-2.14","95","10","2023-06-05 18:24:54","b580c6cbc1ea35a8825601504c3c9405","","Mozilla/5.0 (Linux; Android 10; K) AppleWebKit/537.36 (KHTML, like Gecko) Chrome/114.0.0.0 Mobile Safari/537.36","WebKit","Chrome","114.0.0.0","AndroidOS","10","427825642","","","animals","","","","",""
"null","null","","","html-keyboard-response","113","185223","0.0-14.0-0.15","95","10","2023-06-05 18:24:54","b580c6cbc1ea35a8825601504c3c9405","","Mozilla/5.0 (Linux; Android 10; K) AppleWebKit/537.36 (KHTML, like Gecko) Chrome/114.0.0.0 Mobile Safari/537.36","WebKit","Chrome","114.0.0.0","AndroidOS","10","427825642","<p style=""font-size: 60px;"">+</p>","","","","","","",""
"1398","0","comparison","50008","html-button-response","114","186663","0.0-14.0-1.15-0.15","95","10","2023-06-05 18:24:54","b580c6cbc1ea35a8825601504c3c9405","","Mozilla/5.0 (Linux; Android 10; K) AppleWebKit/537.36 (KHTML, like Gecko) Chrome/114.0.0.0 Mobile Safari/537.36","WebKit","Chrome","114.0.0.0","AndroidOS","10","427825642","<span style='color:blue; font-size:150%'> TIGER</span> <span style='color:black;font-size:150%'> - </span><span style='color:red;font-size:150%'>LION</span> <br> <p> Would you put them in the same group?</p>","LION","animals","tiger, lion","","16","",""
"","","attention","50008","survey-text","115","186675","0.0-14.0-2.15","95","10","2023-06-05 18:24:54","b580c6cbc1ea35a8825601504c3c9405","","Mozilla/5.0 (Linux; Android 10; K) AppleWebKit/537.36 (KHTML, like Gecko) Chrome/114.0.0.0 Mobile Safari/537.36","WebKit","Chrome","114.0.0.0","AndroidOS","10","427825642","","","animals","","","","",""
"null","null","","","html-keyboard-response","116","187190","0.0-14.0-0.16","95","10","2023-06-05 18:24:54","b580c6cbc1ea35a8825601504c3c9405","","Mozilla/5.0 (Linux; Android 10; K) AppleWebKit/537.36 (KHTML, like Gecko) Chrome/114.0.0.0 Mobile Safari/537.36","WebKit","Chrome","114.0.0.0","AndroidOS","10","427825642","<p style=""font-size: 60px;"">+</p>","","","","","","",""
"1324","1","comparison","50008","html-button-response","117","188548","0.0-14.0-1.16-0.16","95","10","2023-06-05 18:24:54","b580c6cbc1ea35a8825601504c3c9405","","Mozilla/5.0 (Linux; Android 10; K) AppleWebKit/537.36 (KHTML, like Gecko) Chrome/114.0.0.0 Mobile Safari/537.36","WebKit","Chrome","114.0.0.0","AndroidOS","10","427825642","<span style='color:red; font-size:150%'> LION</span> <span style='color:black;font-size:150%'> - </span><span style='color:green;font-size:150%'>ANTELOPE</span> <br> <p> Would you put them in the same group?</p>","ANTELOPE","animals","lion, antelope","","17","",""
"","","attention","50008","survey-text","118","188559","0.0-14.0-2.16","95","10","2023-06-05 18:24:54","b580c6cbc1ea35a8825601504c3c9405","","Mozilla/5.0 (Linux; Android 10; K) AppleWebKit/537.36 (KHTML, like Gecko) Chrome/114.0.0.0 Mobile Safari/537.36","WebKit","Chrome","114.0.0.0","AndroidOS","10","427825642","","","animals","","","","",""
"null","null","","","html-keyboard-response","119","189070","0.0-14.0-0.17","95","10","2023-06-05 18:24:54","b580c6cbc1ea35a8825601504c3c9405","","Mozilla/5.0 (Linux; Android 10; K) AppleWebKit/537.36 (KHTML, like Gecko) Chrome/114.0.0.0 Mobile Safari/537.36","WebKit","Chrome","114.0.0.0","AndroidOS","10","427825642","<p style=""font-size: 60px;"">+</p>","","","","","","",""
"1491","0","comparison","50008","html-button-response","120","190597","0.0-14.0-1.17-0.17","95","10","2023-06-05 18:24:54","b580c6cbc1ea35a8825601504c3c9405","","Mozilla/5.0 (Linux; Android 10; K) AppleWebKit/537.36 (KHTML, like Gecko) Chrome/114.0.0.0 Mobile Safari/537.36","WebKit","Chrome","114.0.0.0","AndroidOS","10","427825642","<span style='color:green; font-size:150%'> ANTELOPE</span> <span style='color:black;font-size:150%'> - </span><span style='color:blue;font-size:150%'>ZEBRA</span> <br> <p> Would you put them in the same group?</p>","ZEBRA","animals","antelope, zebra","","18","",""
"","","attention","50008","survey-text","121","190614","0.0-14.0-2.17","95","10","2023-06-05 18:24:54","b580c6cbc1ea35a8825601504c3c9405","","Mozilla/5.0 (Linux; Android 10; K) AppleWebKit/537.36 (KHTML, like Gecko) Chrome/114.0.0.0 Mobile Safari/537.36","WebKit","Chrome","114.0.0.0","AndroidOS","10","427825642","","","animals","","","","",""
"null","null","","","html-keyboard-response","122","191127","0.0-14.0-0.18","95","10","2023-06-05 18:24:54","b580c6cbc1ea35a8825601504c3c9405","","Mozilla/5.0 (Linux; Android 10; K) AppleWebKit/537.36 (KHTML, like Gecko) Chrome/114.0.0.0 Mobile Safari/537.36","WebKit","Chrome","114.0.0.0","AndroidOS","10","427825642","<p style=""font-size: 60px;"">+</p>","","","","","","",""
"2481","0","comparison","50008","html-button-response","123","193662","0.0-14.0-1.18-0.18","95","10","2023-06-05 18:24:54","b580c6cbc1ea35a8825601504c3c9405","","Mozilla/5.0 (Linux; Android 10; K) AppleWebKit/537.36 (KHTML, like Gecko) Chrome/114.0.0.0 Mobile Safari/537.36","WebKit","Chrome","114.0.0.0","AndroidOS","10","427825642","<span style='color:blue; font-size:150%'> ZEBRA</span> <span style='color:black;font-size:150%'> - </span><span style='color:red;font-size:150%'>HORSE</span> <br> <p> Would you put them in the same group?</p>","HORSE","animals","zebra, horse","","19","",""
"","","attention","50008","survey-text","124","193670","0.0-14.0-2.18","95","10","2023-06-05 18:24:54","b580c6cbc1ea35a8825601504c3c9405","","Mozilla/5.0 (Linux; Android 10; K) AppleWebKit/537.36 (KHTML, like Gecko) Chrome/114.0.0.0 Mobile Safari/537.36","WebKit","Chrome","114.0.0.0","AndroidOS","10","427825642","","","animals","","","","",""
"null","null","","","html-keyboard-response","125","194181","0.0-14.0-0.19","95","10","2023-06-05 18:24:54","b580c6cbc1ea35a8825601504c3c9405","","Mozilla/5.0 (Linux; Android 10; K) AppleWebKit/537.36 (KHTML, like Gecko) Chrome/114.0.0.0 Mobile Safari/537.36","WebKit","Chrome","114.0.0.0","AndroidOS","10","427825642","<p style=""font-size: 60px;"">+</p>","","","","","","",""
"1186","1","comparison","50008","html-button-response","126","195387","0.0-14.0-1.19-0.19","95","10","2023-06-05 18:24:54","b580c6cbc1ea35a8825601504c3c9405","","Mozilla/5.0 (Linux; Android 10; K) AppleWebKit/537.36 (KHTML, like Gecko) Chrome/114.0.0.0 Mobile Safari/537.36","WebKit","Chrome","114.0.0.0","AndroidOS","10","427825642","<span style='color:red; font-size:150%'> HORSE</span> <span style='color:black;font-size:150%'> - </span><span style='color:green;font-size:150%'>PIG</span> <br> <p> Would you put them in the same group?</p>","PIG","animals","horse, pig","","20","",""
"","","attention","50008","survey-text","127","195398","0.0-14.0-2.19","95","10","2023-06-05 18:24:54","b580c6cbc1ea35a8825601504c3c9405","","Mozilla/5.0 (Linux; Android 10; K) AppleWebKit/537.36 (KHTML, like Gecko) Chrome/114.0.0.0 Mobile Safari/537.36","WebKit","Chrome","114.0.0.0","AndroidOS","10","427825642","","","animals","","","","",""
"null","null","","","html-keyboard-response","128","195911","0.0-14.0-0.20","95","10","2023-06-05 18:24:54","b580c6cbc1ea35a8825601504c3c9405","","Mozilla/5.0 (Linux; Android 10; K) AppleWebKit/537.36 (KHTML, like Gecko) Chrome/114.0.0.0 Mobile Safari/537.36","WebKit","Chrome","114.0.0.0","AndroidOS","10","427825642","<p style=""font-size: 60px;"">+</p>","","","","","","",""
"1737","1","comparison","50008","html-button-response","129","197700","0.0-14.0-1.20-0.20","95","10","2023-06-05 18:24:54","b580c6cbc1ea35a8825601504c3c9405","","Mozilla/5.0 (Linux; Android 10; K) AppleWebKit/537.36 (KHTML, like Gecko) Chrome/114.0.0.0 Mobile Safari/537.36","WebKit","Chrome","114.0.0.0","AndroidOS","10","427825642","<span style='color:green; font-size:150%'> PIG</span> <span style='color:black;font-size:150%'> - </span><span style='color:blue;font-size:150%'>CHICKEN</span> <br> <p> Would you put them in the same group?</p>","CHICKEN","animals","pig, chicken","","21","",""
"","","attention","50008","survey-text","130","197728","0.0-14.0-2.20","95","10","2023-06-05 18:24:54","b580c6cbc1ea35a8825601504c3c9405","","Mozilla/5.0 (Linux; Android 10; K) AppleWebKit/537.36 (KHTML, like Gecko) Chrome/114.0.0.0 Mobile Safari/537.36","WebKit","Chrome","114.0.0.0","AndroidOS","10","427825642","","","animals","","","","",""
"null","null","","","html-keyboard-response","131","198254","0.0-14.0-0.21","95","10","2023-06-05 18:24:54","b580c6cbc1ea35a8825601504c3c9405","","Mozilla/5.0 (Linux; Android 10; K) AppleWebKit/537.36 (KHTML, like Gecko) Chrome/114.0.0.0 Mobile Safari/537.36","WebKit","Chrome","114.0.0.0","AndroidOS","10","427825642","<p style=""font-size: 60px;"">+</p>","","","","","","",""
"1397","0","comparison","50008","html-button-response","132","199683","0.0-14.0-1.21-0.21","95","10","2023-06-05 18:24:54","b580c6cbc1ea35a8825601504c3c9405","","Mozilla/5.0 (Linux; Android 10; K) AppleWebKit/537.36 (KHTML, like Gecko) Chrome/114.0.0.0 Mobile Safari/537.36","WebKit","Chrome","114.0.0.0","AndroidOS","10","427825642","<span style='color:blue; font-size:150%'> CHICKEN</span> <span style='color:black;font-size:150%'> - </span><span style='color:red;font-size:150%'>DUCK</span> <br> <p> Would you put them in the same group?</p>","DUCK","animals","chicken, duck","","22","",""
"","","attention","50008","survey-text","133","199696","0.0-14.0-2.21","95","10","2023-06-05 18:24:54","b580c6cbc1ea35a8825601504c3c9405","","Mozilla/5.0 (Linux; Android 10; K) AppleWebKit/537.36 (KHTML, like Gecko) Chrome/114.0.0.0 Mobile Safari/537.36","WebKit","Chrome","114.0.0.0","AndroidOS","10","427825642","","","animals","","","","",""
"null","null","","","html-keyboard-response","134","200205","0.0-14.0-0.22","95","10","2023-06-05 18:24:54","b580c6cbc1ea35a8825601504c3c9405","","Mozilla/5.0 (Linux; Android 10; K) AppleWebKit/537.36 (KHTML, like Gecko) Chrome/114.0.0.0 Mobile Safari/537.36","WebKit","Chrome","114.0.0.0","AndroidOS","10","427825642","<p style=""font-size: 60px;"">+</p>","","","","","","",""
"1240","0","comparison","50008","html-button-response","135","201471","0.0-14.0-1.22-0.22","95","10","2023-06-05 18:24:54","b580c6cbc1ea35a8825601504c3c9405","","Mozilla/5.0 (Linux; Android 10; K) AppleWebKit/537.36 (KHTML, like Gecko) Chrome/114.0.0.0 Mobile Safari/537.36","WebKit","Chrome","114.0.0.0","AndroidOS","10","427825642","<span style='color:red; font-size:150%'> DUCK</span> <span style='color:black;font-size:150%'> - </span><span style='color:green;font-size:150%'>TURKEY</span> <br> <p> Would you put them in the same group?</p>","TURKEY","animals","duck, turkey","","23","",""
"","","attention","50008","survey-text","136","201499","0.0-14.0-2.22","95","10","2023-06-05 18:24:54","b580c6cbc1ea35a8825601504c3c9405","","Mozilla/5.0 (Linux; Android 10; K) AppleWebKit/537.36 (KHTML, like Gecko) Chrome/114.0.0.0 Mobile Safari/537.36","WebKit","Chrome","114.0.0.0","AndroidOS","10","427825642","","","animals","","","","",""
"null","null","","","html-keyboard-response","137","202022","0.0-14.0-0.23","95","10","2023-06-05 18:24:54","b580c6cbc1ea35a8825601504c3c9405","","Mozilla/5.0 (Linux; Android 10; K) AppleWebKit/537.36 (KHTML, like Gecko) Chrome/114.0.0.0 Mobile Safari/537.36","WebKit","Chrome","114.0.0.0","AndroidOS","10","427825642","<p style=""font-size: 60px;"">+</p>","","","","","","",""
"1337","1","comparison","50008","html-button-response","138","203397","0.0-14.0-1.23-0.23","95","10","2023-06-05 18:24:54","b580c6cbc1ea35a8825601504c3c9405","","Mozilla/5.0 (Linux; Android 10; K) AppleWebKit/537.36 (KHTML, like Gecko) Chrome/114.0.0.0 Mobile Safari/537.36","WebKit","Chrome","114.0.0.0","AndroidOS","10","427825642","<span style='color:green; font-size:150%'> TURKEY</span> <span style='color:black;font-size:150%'> - </span><span style='color:blue;font-size:150%'>COW</span> <br> <p> Would you put them in the same group?</p>","COW","animals","turkey, cow","","24","",""
"","","attention","50008","survey-text","139","203419","0.0-14.0-2.23","95","10","2023-06-05 18:24:54","b580c6cbc1ea35a8825601504c3c9405","","Mozilla/5.0 (Linux; Android 10; K) AppleWebKit/537.36 (KHTML, like Gecko) Chrome/114.0.0.0 Mobile Safari/537.36","WebKit","Chrome","114.0.0.0","AndroidOS","10","427825642","","","animals","","","","",""
"null","null","","","html-keyboard-response","140","203926","0.0-14.0-0.24","95","10","2023-06-05 18:24:54","b580c6cbc1ea35a8825601504c3c9405","","Mozilla/5.0 (Linux; Android 10; K) AppleWebKit/537.36 (KHTML, like Gecko) Chrome/114.0.0.0 Mobile Safari/537.36","WebKit","Chrome","114.0.0.0","AndroidOS","10","427825642","<p style=""font-size: 60px;"">+</p>","","","","","","",""
"1702","0","comparison","50008","html-button-response","141","205665","0.0-14.0-1.24-0.24","95","10","2023-06-05 18:24:54","b580c6cbc1ea35a8825601504c3c9405","","Mozilla/5.0 (Linux; Android 10; K) AppleWebKit/537.36 (KHTML, like Gecko) Chrome/114.0.0.0 Mobile Safari/537.36","WebKit","Chrome","114.0.0.0","AndroidOS","10","427825642","<span style='color:blue; font-size:150%'> COW</span> <span style='color:black;font-size:150%'> - </span><span style='color:red;font-size:150%'>BUFFALO</span> <br> <p> Would you put them in the same group?</p>","BUFFALO","animals","cow, buffalo","","25","",""
"","","attention","50008","survey-text","142","205676","0.0-14.0-2.24","95","10","2023-06-05 18:24:54","b580c6cbc1ea35a8825601504c3c9405","","Mozilla/5.0 (Linux; Android 10; K) AppleWebKit/537.36 (KHTML, like Gecko) Chrome/114.0.0.0 Mobile Safari/537.36","WebKit","Chrome","114.0.0.0","AndroidOS","10","427825642","","","animals","","","","",""
"null","null","","","html-keyboard-response","143","206189","0.0-14.0-0.25","95","10","2023-06-05 18:24:54","b580c6cbc1ea35a8825601504c3c9405","","Mozilla/5.0 (Linux; Android 10; K) AppleWebKit/537.36 (KHTML, like Gecko) Chrome/114.0.0.0 Mobile Safari/537.36","WebKit","Chrome","114.0.0.0","AndroidOS","10","427825642","<p style=""font-size: 60px;"">+</p>","","","","","","",""
"1357","1","comparison","50008","html-button-response","144","207569","0.0-14.0-1.25-0.25","95","10","2023-06-05 18:24:54","b580c6cbc1ea35a8825601504c3c9405","","Mozilla/5.0 (Linux; Android 10; K) AppleWebKit/537.36 (KHTML, like Gecko) Chrome/114.0.0.0 Mobile Safari/537.36","WebKit","Chrome","114.0.0.0","AndroidOS","10","427825642","<span style='color:red; font-size:150%'> BUFFALO</span> <span style='color:black;font-size:150%'> - </span><span style='color:green;font-size:150%'>GOOSE</span> <br> <p> Would you put them in the same group?</p>","GOOSE","animals","buffalo, goose","","26","",""
"","","attention","50008","survey-text","145","207579","0.0-14.0-2.25","95","10","2023-06-05 18:24:54","b580c6cbc1ea35a8825601504c3c9405","","Mozilla/5.0 (Linux; Android 10; K) AppleWebKit/537.36 (KHTML, like Gecko) Chrome/114.0.0.0 Mobile Safari/537.36","WebKit","Chrome","114.0.0.0","AndroidOS","10","427825642","","","animals","","","","",""
"null","null","","","html-keyboard-response","146","208094","0.0-14.0-0.26","95","10","2023-06-05 18:24:54","b580c6cbc1ea35a8825601504c3c9405","","Mozilla/5.0 (Linux; Android 10; K) AppleWebKit/537.36 (KHTML, like Gecko) Chrome/114.0.0.0 Mobile Safari/537.36","WebKit","Chrome","114.0.0.0","AndroidOS","10","427825642","<p style=""font-size: 60px;"">+</p>","","","","","","",""
"1331","0","comparison","50008","html-button-response","147","209464","0.0-14.0-1.26-0.26","95","10","2023-06-05 18:24:54","b580c6cbc1ea35a8825601504c3c9405","","Mozilla/5.0 (Linux; Android 10; K) AppleWebKit/537.36 (KHTML, like Gecko) Chrome/114.0.0.0 Mobile Safari/537.36","WebKit","Chrome","114.0.0.0","AndroidOS","10","427825642","<span style='color:green; font-size:150%'> GOOSE</span> <span style='color:black;font-size:150%'> - </span><span style='color:blue;font-size:150%'>DUCK</span> <br> <p> Would you put them in the same group?</p>","DUCK","animals","goose, duck","","27","",""
"","","attention","50008","survey-text","148","209483","0.0-14.0-2.26","95","10","2023-06-05 18:24:54","b580c6cbc1ea35a8825601504c3c9405","","Mozilla/5.0 (Linux; Android 10; K) AppleWebKit/537.36 (KHTML, like Gecko) Chrome/114.0.0.0 Mobile Safari/537.36","WebKit","Chrome","114.0.0.0","AndroidOS","10","427825642","","","animals","","","","",""
"null","null","","","html-keyboard-response","149","210007","0.0-14.0-0.27","95","10","2023-06-05 18:24:54","b580c6cbc1ea35a8825601504c3c9405","","Mozilla/5.0 (Linux; Android 10; K) AppleWebKit/537.36 (KHTML, like Gecko) Chrome/114.0.0.0 Mobile Safari/537.36","WebKit","Chrome","114.0.0.0","AndroidOS","10","427825642","<p style=""font-size: 60px;"">+</p>","","","","","","",""
"1308","1","comparison","50008","html-button-response","150","211380","0.0-14.0-1.27-0.27","95","10","2023-06-05 18:24:54","b580c6cbc1ea35a8825601504c3c9405","","Mozilla/5.0 (Linux; Android 10; K) AppleWebKit/537.36 (KHTML, like Gecko) Chrome/114.0.0.0 Mobile Safari/537.36","WebKit","Chrome","114.0.0.0","AndroidOS","10","427825642","<span style='color:blue; font-size:150%'> DUCK</span> <span style='color:black;font-size:150%'> - </span><span style='color:red;font-size:150%'>SKUNK</span> <br> <p> Would you put them in the same group?</p>","SKUNK","animals","duck, skunk","","28","",""
"","","attention","50008","survey-text","151","211404","0.0-14.0-2.27","95","10","2023-06-05 18:24:54","b580c6cbc1ea35a8825601504c3c9405","","Mozilla/5.0 (Linux; Android 10; K) AppleWebKit/537.36 (KHTML, like Gecko) Chrome/114.0.0.0 Mobile Safari/537.36","WebKit","Chrome","114.0.0.0","AndroidOS","10","427825642","","","animals","","","","",""
"null","null","","","html-keyboard-response","152","211926","0.0-14.0-0.28","95","10","2023-06-05 18:24:54","b580c6cbc1ea35a8825601504c3c9405","","Mozilla/5.0 (Linux; Android 10; K) AppleWebKit/537.36 (KHTML, like Gecko) Chrome/114.0.0.0 Mobile Safari/537.36","WebKit","Chrome","114.0.0.0","AndroidOS","10","427825642","<p style=""font-size: 60px;"">+</p>","","","","","","",""
"1665","0","comparison","50008","html-button-response","153","213627","0.0-14.0-1.28-0.28","95","10","2023-06-05 18:24:54","b580c6cbc1ea35a8825601504c3c9405","","Mozilla/5.0 (Linux; Android 10; K) AppleWebKit/537.36 (KHTML, like Gecko) Chrome/114.0.0.0 Mobile Safari/537.36","WebKit","Chrome","114.0.0.0","AndroidOS","10","427825642","<span style='color:red; font-size:150%'> SKUNK</span> <span style='color:black;font-size:150%'> - </span><span style='color:green;font-size:150%'>SQUIRREL</span> <br> <p> Would you put them in the same group?</p>","SQUIRREL","animals","skunk, squirrel","","29","",""
"","","attention","50008","survey-text","154","213655","0.0-14.0-2.28","95","10","2023-06-05 18:24:54","b580c6cbc1ea35a8825601504c3c9405","","Mozilla/5.0 (Linux; Android 10; K) AppleWebKit/537.36 (KHTML, like Gecko) Chrome/114.0.0.0 Mobile Safari/537.36","WebKit","Chrome","114.0.0.0","AndroidOS","10","427825642","","","animals","","","","",""
"null","null","","","html-keyboard-response","155","214182","0.0-14.0-0.29","95","10","2023-06-05 18:24:54","b580c6cbc1ea35a8825601504c3c9405","","Mozilla/5.0 (Linux; Android 10; K) AppleWebKit/537.36 (KHTML, like Gecko) Chrome/114.0.0.0 Mobile Safari/537.36","WebKit","Chrome","114.0.0.0","AndroidOS","10","427825642","<p style=""font-size: 60px;"">+</p>","","","","","","",""
"1095","0","comparison","50008","html-button-response","156","215330","0.0-14.0-1.29-0.29","95","10","2023-06-05 18:24:54","b580c6cbc1ea35a8825601504c3c9405","","Mozilla/5.0 (Linux; Android 10; K) AppleWebKit/537.36 (KHTML, like Gecko) Chrome/114.0.0.0 Mobile Safari/537.36","WebKit","Chrome","114.0.0.0","AndroidOS","10","427825642","<span style='color:green; font-size:150%'> SQUIRREL</span> <span style='color:black;font-size:150%'> - </span><span style='color:blue;font-size:150%'>CHIPMUNK</span> <br> <p> Would you put them in the same group?</p>","CHIPMUNK","animals","squirrel, chipmunk","","30","",""
"","","attention","50008","survey-text","157","215338","0.0-14.0-2.29","95","10","2023-06-05 18:24:54","b580c6cbc1ea35a8825601504c3c9405","","Mozilla/5.0 (Linux; Android 10; K) AppleWebKit/537.36 (KHTML, like Gecko) Chrome/114.0.0.0 Mobile Safari/537.36","WebKit","Chrome","114.0.0.0","AndroidOS","10","427825642","","","animals","","","","",""
"null","null","","","html-keyboard-response","158","215846","0.0-14.0-0.30","95","10","2023-06-05 18:24:54","b580c6cbc1ea35a8825601504c3c9405","","Mozilla/5.0 (Linux; Android 10; K) AppleWebKit/537.36 (KHTML, like Gecko) Chrome/114.0.0.0 Mobile Safari/537.36","WebKit","Chrome","114.0.0.0","AndroidOS","10","427825642","<p style=""font-size: 60px;"">+</p>","","","","","","",""
"1048","1","comparison","50008","html-button-response","159","216932","0.0-14.0-1.30-0.30","95","10","2023-06-05 18:24:54","b580c6cbc1ea35a8825601504c3c9405","","Mozilla/5.0 (Linux; Android 10; K) AppleWebKit/537.36 (KHTML, like Gecko) Chrome/114.0.0.0 Mobile Safari/537.36","WebKit","Chrome","114.0.0.0","AndroidOS","10","427825642","<span style='color:blue; font-size:150%'> CHIPMUNK</span> <span style='color:black;font-size:150%'> - </span><span style='color:red;font-size:150%'>BIRD</span> <br> <p> Would you put them in the same group?</p>","BIRD","animals","chipmunk, bird","","31","",""
"","","attention","50008","survey-text","160","216956","0.0-14.0-2.30","95","10","2023-06-05 18:24:54","b580c6cbc1ea35a8825601504c3c9405","","Mozilla/5.0 (Linux; Android 10; K) AppleWebKit/537.36 (KHTML, like Gecko) Chrome/114.0.0.0 Mobile Safari/537.36","WebKit","Chrome","114.0.0.0","AndroidOS","10","427825642","","","animals","","","","",""
"null","null","","","html-keyboard-response","161","217477","0.0-14.0-0.31","95","10","2023-06-05 18:24:54","b580c6cbc1ea35a8825601504c3c9405","","Mozilla/5.0 (Linux; Android 10; K) AppleWebKit/537.36 (KHTML, like Gecko) Chrome/114.0.0.0 Mobile Safari/537.36","WebKit","Chrome","114.0.0.0","AndroidOS","10","427825642","<p style=""font-size: 60px;"">+</p>","","","","","","",""
"1113","1","comparison","50008","html-button-response","162","218615","0.0-14.0-1.31-0.31","95","10","2023-06-05 18:24:54","b580c6cbc1ea35a8825601504c3c9405","","Mozilla/5.0 (Linux; Android 10; K) AppleWebKit/537.36 (KHTML, like Gecko) Chrome/114.0.0.0 Mobile Safari/537.36","WebKit","Chrome","114.0.0.0","AndroidOS","10","427825642","<span style='color:red; font-size:150%'> BIRD</span> <span style='color:black;font-size:150%'> - </span><span style='color:green;font-size:150%'>TURTLE</span> <br> <p> Would you put them in the same group?</p>","TURTLE","animals","bird, turtle","","32","",""
"","","attention","50008","survey-text","163","218627","0.0-14.0-2.31","95","10","2023-06-05 18:24:54","b580c6cbc1ea35a8825601504c3c9405","","Mozilla/5.0 (Linux; Android 10; K) AppleWebKit/537.36 (KHTML, like Gecko) Chrome/114.0.0.0 Mobile Safari/537.36","WebKit","Chrome","114.0.0.0","AndroidOS","10","427825642","","","animals","","","","",""
"null","null","","","html-keyboard-response","164","219143","0.0-14.0-0.32","95","10","2023-06-05 18:24:54","b580c6cbc1ea35a8825601504c3c9405","","Mozilla/5.0 (Linux; Android 10; K) AppleWebKit/537.36 (KHTML, like Gecko) Chrome/114.0.0.0 Mobile Safari/537.36","WebKit","Chrome","114.0.0.0","AndroidOS","10","427825642","<p style=""font-size: 60px;"">+</p>","","","","","","",""
"1220","0","comparison","50008","html-button-response","165","220401","0.0-14.0-1.32-0.32","95","10","2023-06-05 18:24:54","b580c6cbc1ea35a8825601504c3c9405","","Mozilla/5.0 (Linux; Android 10; K) AppleWebKit/537.36 (KHTML, like Gecko) Chrome/114.0.0.0 Mobile Safari/537.36","WebKit","Chrome","114.0.0.0","AndroidOS","10","427825642","<span style='color:green; font-size:150%'> TURTLE</span> <span style='color:black;font-size:150%'> - </span><span style='color:blue;font-size:150%'>TORTOISE</span> <br> <p> Would you put them in the same group?</p>","TORTOISE","animals","turtle, tortoise","","33","",""
"","","attention","50008","survey-text","166","220415","0.0-14.0-2.32","95","10","2023-06-05 18:24:54","b580c6cbc1ea35a8825601504c3c9405","","Mozilla/5.0 (Linux; Android 10; K) AppleWebKit/537.36 (KHTML, like Gecko) Chrome/114.0.0.0 Mobile Safari/537.36","WebKit","Chrome","114.0.0.0","AndroidOS","10","427825642","","","animals","","","","",""
"null","null","","","html-keyboard-response","167","220926","0.0-14.0-0.33","95","10","2023-06-05 18:24:54","b580c6cbc1ea35a8825601504c3c9405","","Mozilla/5.0 (Linux; Android 10; K) AppleWebKit/537.36 (KHTML, like Gecko) Chrome/114.0.0.0 Mobile Safari/537.36","WebKit","Chrome","114.0.0.0","AndroidOS","10","427825642","<p style=""font-size: 60px;"">+</p>","","","","","","",""
"1571","0","comparison","50008","html-button-response","168","222535","0.0-14.0-1.33-0.33","95","10","2023-06-05 18:24:54","b580c6cbc1ea35a8825601504c3c9405","","Mozilla/5.0 (Linux; Android 10; K) AppleWebKit/537.36 (KHTML, like Gecko) Chrome/114.0.0.0 Mobile Safari/537.36","WebKit","Chrome","114.0.0.0","AndroidOS","10","427825642","<span style='color:blue; font-size:150%'> TORTOISE</span> <span style='color:black;font-size:150%'> - </span><span style='color:red;font-size:150%'>ALLIGATOR</span> <br> <p> Would you put them in the same group?</p>","ALLIGATOR","animals","tortoise, alligator","","34","",""
"","","attention","50008","survey-text","169","222564","0.0-14.0-2.33","95","10","2023-06-05 18:24:54","b580c6cbc1ea35a8825601504c3c9405","","Mozilla/5.0 (Linux; Android 10; K) AppleWebKit/537.36 (KHTML, like Gecko) Chrome/114.0.0.0 Mobile Safari/537.36","WebKit","Chrome","114.0.0.0","AndroidOS","10","427825642","","","animals","","","","",""
"null","null","","","html-keyboard-response","170","223093","0.0-14.0-0.34","95","10","2023-06-05 18:24:54","b580c6cbc1ea35a8825601504c3c9405","","Mozilla/5.0 (Linux; Android 10; K) AppleWebKit/537.36 (KHTML, like Gecko) Chrome/114.0.0.0 Mobile Safari/537.36","WebKit","Chrome","114.0.0.0","AndroidOS","10","427825642","<p style=""font-size: 60px;"">+</p>","","","","","","",""
"1134","0","comparison","50008","html-button-response","171","224245","0.0-14.0-1.34-0.34","95","10","2023-06-05 18:24:54","b580c6cbc1ea35a8825601504c3c9405","","Mozilla/5.0 (Linux; Android 10; K) AppleWebKit/537.36 (KHTML, like Gecko) Chrome/114.0.0.0 Mobile Safari/537.36","WebKit","Chrome","114.0.0.0","AndroidOS","10","427825642","<span style='color:red; font-size:150%'> ALLIGATOR</span> <span style='color:black;font-size:150%'> - </span><span style='color:green;font-size:150%'>CROCODILE</span> <br> <p> Would you put them in the same group?</p>","CROCODILE","animals","alligator, crocodile","","35","",""
"","","attention","50008","survey-text","172","224254","0.0-14.0-2.34","95","10","2023-06-05 18:24:54","b580c6cbc1ea35a8825601504c3c9405","","Mozilla/5.0 (Linux; Android 10; K) AppleWebKit/537.36 (KHTML, like Gecko) Chrome/114.0.0.0 Mobile Safari/537.36","WebKit","Chrome","114.0.0.0","AndroidOS","10","427825642","","","animals","","","","",""
"null","null","","","html-keyboard-response","173","224766","0.0-14.0-0.35","95","10","2023-06-05 18:24:54","b580c6cbc1ea35a8825601504c3c9405","","Mozilla/5.0 (Linux; Android 10; K) AppleWebKit/537.36 (KHTML, like Gecko) Chrome/114.0.0.0 Mobile Safari/537.36","WebKit","Chrome","114.0.0.0","AndroidOS","10","427825642","<p style=""font-size: 60px;"">+</p>","","","","","","",""
"2663","1","comparison","50008","html-button-response","174","227477","0.0-14.0-1.35-0.35","95","10","2023-06-05 18:24:54","b580c6cbc1ea35a8825601504c3c9405","","Mozilla/5.0 (Linux; Android 10; K) AppleWebKit/537.36 (KHTML, like Gecko) Chrome/114.0.0.0 Mobile Safari/537.36","WebKit","Chrome","114.0.0.0","AndroidOS","10","427825642","<span style='color:green; font-size:150%'> CROCODILE</span> <span style='color:black;font-size:150%'> - </span><span style='color:blue;font-size:150%'>FISH</span> <br> <p> Would you put them in the same group?</p>","FISH","animals","crocodile, fish","","36","",""
"","","attention","50008","survey-text","175","227489","0.0-14.0-2.35","95","10","2023-06-05 18:24:54","b580c6cbc1ea35a8825601504c3c9405","","Mozilla/5.0 (Linux; Android 10; K) AppleWebKit/537.36 (KHTML, like Gecko) Chrome/114.0.0.0 Mobile Safari/537.36","WebKit","Chrome","114.0.0.0","AndroidOS","10","427825642","","","animals","","","","",""
"null","null","","","html-keyboard-response","176","228005","0.0-14.0-0.36","95","10","2023-06-05 18:24:54","b580c6cbc1ea35a8825601504c3c9405","","Mozilla/5.0 (Linux; Android 10; K) AppleWebKit/537.36 (KHTML, like Gecko) Chrome/114.0.0.0 Mobile Safari/537.36","WebKit","Chrome","114.0.0.0","AndroidOS","10","427825642","<p style=""font-size: 60px;"">+</p>","","","","","","",""
"1649","0","comparison","50008","html-button-response","177","229676","0.0-14.0-1.36-0.36","95","10","2023-06-05 18:24:54","b580c6cbc1ea35a8825601504c3c9405","","Mozilla/5.0 (Linux; Android 10; K) AppleWebKit/537.36 (KHTML, like Gecko) Chrome/114.0.0.0 Mobile Safari/537.36","WebKit","Chrome","114.0.0.0","AndroidOS","10","427825642","<span style='color:blue; font-size:150%'> FISH</span> <span style='color:black;font-size:150%'> - </span><span style='color:red;font-size:150%'>SHARK</span> <br> <p> Would you put them in the same group?</p>","SHARK","animals","fish, shark","","37","",""
"","","attention","50008","survey-text","178","229693","0.0-14.0-2.36","95","10","2023-06-05 18:24:54","b580c6cbc1ea35a8825601504c3c9405","","Mozilla/5.0 (Linux; Android 10; K) AppleWebKit/537.36 (KHTML, like Gecko) Chrome/114.0.0.0 Mobile Safari/537.36","WebKit","Chrome","114.0.0.0","AndroidOS","10","427825642","","","animals","","","","",""
"null","null","","","html-keyboard-response","179","230206","0.0-14.0-0.37","95","10","2023-06-05 18:24:54","b580c6cbc1ea35a8825601504c3c9405","","Mozilla/5.0 (Linux; Android 10; K) AppleWebKit/537.36 (KHTML, like Gecko) Chrome/114.0.0.0 Mobile Safari/537.36","WebKit","Chrome","114.0.0.0","AndroidOS","10","427825642","<p style=""font-size: 60px;"">+</p>","","","","","","",""
"1120","0","comparison","50008","html-button-response","180","231359","0.0-14.0-1.37-0.37","95","10","2023-06-05 18:24:54","b580c6cbc1ea35a8825601504c3c9405","","Mozilla/5.0 (Linux; Android 10; K) AppleWebKit/537.36 (KHTML, like Gecko) Chrome/114.0.0.0 Mobile Safari/537.36","WebKit","Chrome","114.0.0.0","AndroidOS","10","427825642","<span style='color:red; font-size:150%'> SHARK</span> <span style='color:black;font-size:150%'> - </span><span style='color:green;font-size:150%'>WHALE</span> <br> <p> Would you put them in the same group?</p>","WHALE","animals","shark, whale","","38","",""
"","","attention","50008","survey-text","181","231378","0.0-14.0-2.37","95","10","2023-06-05 18:24:54","b580c6cbc1ea35a8825601504c3c9405","","Mozilla/5.0 (Linux; Android 10; K) AppleWebKit/537.36 (KHTML, like Gecko) Chrome/114.0.0.0 Mobile Safari/537.36","WebKit","Chrome","114.0.0.0","AndroidOS","10","427825642","","","animals","","","","",""
"null","null","","","html-keyboard-response","182","231894","0.0-14.0-0.38","95","10","2023-06-05 18:24:54","b580c6cbc1ea35a8825601504c3c9405","","Mozilla/5.0 (Linux; Android 10; K) AppleWebKit/537.36 (KHTML, like Gecko) Chrome/114.0.0.0 Mobile Safari/537.36","WebKit","Chrome","114.0.0.0","AndroidOS","10","427825642","<p style=""font-size: 60px;"">+</p>","","","","","","",""
"4286","0","comparison","50008","html-button-response","183","236224","0.0-14.0-1.38-0.38","95","10","2023-06-05 18:24:54","b580c6cbc1ea35a8825601504c3c9405","","Mozilla/5.0 (Linux; Android 10; K) AppleWebKit/537.36 (KHTML, like Gecko) Chrome/114.0.0.0 Mobile Safari/537.36","WebKit","Chrome","114.0.0.0","AndroidOS","10","427825642","<span style='color:green; font-size:150%'> WHALE</span> <span style='color:black;font-size:150%'> - </span><span style='color:blue;font-size:150%'>DOLPHIN</span> <br> <p> Would you put them in the same group?</p>","DOLPHIN","animals","whale, dolphin","","39","",""
"","","attention","50008","survey-text","184","236259","0.0-14.0-2.38","95","10","2023-06-05 18:24:54","b580c6cbc1ea35a8825601504c3c9405","","Mozilla/5.0 (Linux; Android 10; K) AppleWebKit/537.36 (KHTML, like Gecko) Chrome/114.0.0.0 Mobile Safari/537.36","WebKit","Chrome","114.0.0.0","AndroidOS","10","427825642","","","animals","","","","",""
"null","null","","","html-keyboard-response","185","236782","0.0-14.0-0.39","95","10","2023-06-05 18:24:54","b580c6cbc1ea35a8825601504c3c9405","","Mozilla/5.0 (Linux; Android 10; K) AppleWebKit/537.36 (KHTML, like Gecko) Chrome/114.0.0.0 Mobile Safari/537.36","WebKit","Chrome","114.0.0.0","AndroidOS","10","427825642","<p style=""font-size: 60px;"">+</p>","","","","","","",""
"1304","1","comparison","50008","html-button-response","186","238132","0.0-14.0-1.39-0.39","95","10","2023-06-05 18:24:54","b580c6cbc1ea35a8825601504c3c9405","","Mozilla/5.0 (Linux; Android 10; K) AppleWebKit/537.36 (KHTML, like Gecko) Chrome/114.0.0.0 Mobile Safari/537.36","WebKit","Chrome","114.0.0.0","AndroidOS","10","427825642","<span style='color:blue; font-size:150%'> DOLPHIN</span> <span style='color:black;font-size:150%'> - </span><span style='color:red;font-size:150%'>CHIMPANZEE</span> <br> <p> Would you put them in the same group?</p>","CHIMPANZEE","animals","dolphin, chimpanzee","","40","",""
"","","attention","50008","survey-text","187","238163","0.0-14.0-2.39","95","10","2023-06-05 18:24:54","b580c6cbc1ea35a8825601504c3c9405","","Mozilla/5.0 (Linux; Android 10; K) AppleWebKit/537.36 (KHTML, like Gecko) Chrome/114.0.0.0 Mobile Safari/537.36","WebKit","Chrome","114.0.0.0","AndroidOS","10","427825642","","","animals","","","","",""
"null","null","","","html-keyboard-response","188","238685","0.0-14.0-0.40","95","10","2023-06-05 18:24:54","b580c6cbc1ea35a8825601504c3c9405","","Mozilla/5.0 (Linux; Android 10; K) AppleWebKit/537.36 (KHTML, like Gecko) Chrome/114.0.0.0 Mobile Safari/537.36","WebKit","Chrome","114.0.0.0","AndroidOS","10","427825642","<p style=""font-size: 60px;"">+</p>","","","","","","",""
"1182","0","comparison","50008","html-button-response","189","239891","0.0-14.0-1.40-0.40","95","10","2023-06-05 18:24:54","b580c6cbc1ea35a8825601504c3c9405","","Mozilla/5.0 (Linux; Android 10; K) AppleWebKit/537.36 (KHTML, like Gecko) Chrome/114.0.0.0 Mobile Safari/537.36","WebKit","Chrome","114.0.0.0","AndroidOS","10","427825642","<span style='color:red; font-size:150%'> CHIMPANZEE</span> <span style='color:black;font-size:150%'> - </span><span style='color:green;font-size:150%'>GORILLA</span> <br> <p> Would you put them in the same group?</p>","GORILLA","animals","chimpanzee, gorilla","","41","",""
"","","attention","50008","survey-text","190","239903","0.0-14.0-2.40","95","10","2023-06-05 18:24:54","b580c6cbc1ea35a8825601504c3c9405","","Mozilla/5.0 (Linux; Android 10; K) AppleWebKit/537.36 (KHTML, like Gecko) Chrome/114.0.0.0 Mobile Safari/537.36","WebKit","Chrome","114.0.0.0","AndroidOS","10","427825642","","","animals","","","","",""
"null","null","","","html-keyboard-response","191","240414","0.0-14.0-0.41","95","10","2023-06-05 18:24:54","b580c6cbc1ea35a8825601504c3c9405","","Mozilla/5.0 (Linux; Android 10; K) AppleWebKit/537.36 (KHTML, like Gecko) Chrome/114.0.0.0 Mobile Safari/537.36","WebKit","Chrome","114.0.0.0","AndroidOS","10","427825642","<p style=""font-size: 60px;"">+</p>","","","","","","",""
"1538","0","comparison","50008","html-button-response","192","241991","0.0-14.0-1.41-0.41","95","10","2023-06-05 18:24:54","b580c6cbc1ea35a8825601504c3c9405","","Mozilla/5.0 (Linux; Android 10; K) AppleWebKit/537.36 (KHTML, like Gecko) Chrome/114.0.0.0 Mobile Safari/537.36","WebKit","Chrome","114.0.0.0","AndroidOS","10","427825642","<span style='color:green; font-size:150%'> GORILLA</span> <span style='color:black;font-size:150%'> - </span><span style='color:blue;font-size:150%'>MONKEY</span> <br> <p> Would you put them in the same group?</p>","MONKEY","animals","gorilla, monkey","","42","",""
"","","attention","50008","survey-text","193","242017","0.0-14.0-2.41","95","10","2023-06-05 18:24:54","b580c6cbc1ea35a8825601504c3c9405","","Mozilla/5.0 (Linux; Android 10; K) AppleWebKit/537.36 (KHTML, like Gecko) Chrome/114.0.0.0 Mobile Safari/537.36","WebKit","Chrome","114.0.0.0","AndroidOS","10","427825642","","","animals","","","","",""
"null","null","","","html-keyboard-response","194","242035","0.0-15.0","95","10","2023-06-05 18:24:54","b580c6cbc1ea35a8825601504c3c9405","","Mozilla/5.0 (Linux; Android 10; K) AppleWebKit/537.36 (KHTML, like Gecko) Chrome/114.0.0.0 Mobile Safari/537.36","WebKit","Chrome","114.0.0.0","AndroidOS","10","427825642","<p style=""font-size: 48px;""></p>","","","","","","",""
"null","null","","","html-keyboard-response","195","242541","0.0-16.0-0.0","95","10","2023-06-05 18:24:54","b580c6cbc1ea35a8825601504c3c9405","","Mozilla/5.0 (Linux; Android 10; K) AppleWebKit/537.36 (KHTML, like Gecko) Chrome/114.0.0.0 Mobile Safari/537.36","WebKit","Chrome","114.0.0.0","AndroidOS","10","427825642","<p style=""font-size: 60px;"">+</p>","","","","","","",""
"","2","comparison","50001","html-button-response","196","242570","0.0-16.0-1.0-0.0","95","10","2023-06-05 18:24:54","b580c6cbc1ea35a8825601504c3c9405","","Mozilla/5.0 (Linux; Android 10; K) AppleWebKit/537.36 (KHTML, like Gecko) Chrome/114.0.0.0 Mobile Safari/537.36","WebKit","Chrome","114.0.0.0","AndroidOS","10","427825642","","HORSE","animals","","","1","",""
"","","attention","50001","survey-text","197","242595","0.0-16.0-2.0","95","10","2023-06-05 18:24:54","b580c6cbc1ea35a8825601504c3c9405","","Mozilla/5.0 (Linux; Android 10; K) AppleWebKit/537.36 (KHTML, like Gecko) Chrome/114.0.0.0 Mobile Safari/537.36","WebKit","Chrome","114.0.0.0","AndroidOS","10","427825642","","","animals","","","","",""
"null","null","","","html-keyboard-response","198","243117","0.0-16.0-0.1","95","10","2023-06-05 18:24:54","b580c6cbc1ea35a8825601504c3c9405","","Mozilla/5.0 (Linux; Android 10; K) AppleWebKit/537.36 (KHTML, like Gecko) Chrome/114.0.0.0 Mobile Safari/537.36","WebKit","Chrome","114.0.0.0","AndroidOS","10","427825642","<p style=""font-size: 60px;"">+</p>","","","","","","",""
"1367","1","comparison","50001","html-button-response","199","244502","0.0-16.0-1.1-0.1","95","10","2023-06-05 18:24:54","b580c6cbc1ea35a8825601504c3c9405","","Mozilla/5.0 (Linux; Android 10; K) AppleWebKit/537.36 (KHTML, like Gecko) Chrome/114.0.0.0 Mobile Safari/537.36","WebKit","Chrome","114.0.0.0","AndroidOS","10","427825642","<span style='color:red; font-size:150%'> HORSE</span> <span style='color:black;font-size:150%'> - </span><span style='color:green;font-size:150%'>PIG</span> <br> <p> Would you put them in the same group?</p>","PIG","animals","horse, hello","","2","",""
"","","attention","50001","survey-text","200","244508","0.0-16.0-2.1","95","10","2023-06-05 18:24:54","b580c6cbc1ea35a8825601504c3c9405","","Mozilla/5.0 (Linux; Android 10; K) AppleWebKit/537.36 (KHTML, like Gecko) Chrome/114.0.0.0 Mobile Safari/537.36","WebKit","Chrome","114.0.0.0","AndroidOS","10","427825642","","","animals","","","","",""
"null","null","","","html-keyboard-response","201","245022","0.0-16.0-0.2","95","10","2023-06-05 18:24:54","b580c6cbc1ea35a8825601504c3c9405","","Mozilla/5.0 (Linux; Android 10; K) AppleWebKit/537.36 (KHTML, like Gecko) Chrome/114.0.0.0 Mobile Safari/537.36","WebKit","Chrome","114.0.0.0","AndroidOS","10","427825642","<p style=""font-size: 60px;"">+</p>","","","","","","",""
"1217","1","comparison","50001","html-button-response","202","246279","0.0-16.0-1.2-0.2","95","10","2023-06-05 18:24:54","b580c6cbc1ea35a8825601504c3c9405","","Mozilla/5.0 (Linux; Android 10; K) AppleWebKit/537.36 (KHTML, like Gecko) Chrome/114.0.0.0 Mobile Safari/537.36","WebKit","Chrome","114.0.0.0","AndroidOS","10","427825642","<span style='color:green; font-size:150%'> PIG</span> <span style='color:black;font-size:150%'> - </span><span style='color:blue;font-size:150%'>BEAR</span> <br> <p> Would you put them in the same group?</p>","BEAR","animals","pig, bear","","3","",""
"","","attention","50001","survey-text","203","246289","0.0-16.0-2.2","95","10","2023-06-05 18:24:54","b580c6cbc1ea35a8825601504c3c9405","","Mozilla/5.0 (Linux; Android 10; K) AppleWebKit/537.36 (KHTML, like Gecko) Chrome/114.0.0.0 Mobile Safari/537.36","WebKit","Chrome","114.0.0.0","AndroidOS","10","427825642","","","animals","","","","",""
"null","null","","","html-keyboard-response","204","246797","0.0-16.0-0.3","95","10","2023-06-05 18:24:54","b580c6cbc1ea35a8825601504c3c9405","","Mozilla/5.0 (Linux; Android 10; K) AppleWebKit/537.36 (KHTML, like Gecko) Chrome/114.0.0.0 Mobile Safari/537.36","WebKit","Chrome","114.0.0.0","AndroidOS","10","427825642","<p style=""font-size: 60px;"">+</p>","","","","","","",""
"1638","1","comparison","50001","html-button-response","205","248463","0.0-16.0-1.3-0.3","95","10","2023-06-05 18:24:54","b580c6cbc1ea35a8825601504c3c9405","","Mozilla/5.0 (Linux; Android 10; K) AppleWebKit/537.36 (KHTML, like Gecko) Chrome/114.0.0.0 Mobile Safari/537.36","WebKit","Chrome","114.0.0.0","AndroidOS","10","427825642","<span style='color:blue; font-size:150%'> BEAR</span> <span style='color:black;font-size:150%'> - </span><span style='color:red;font-size:150%'>CAT</span> <br> <p> Would you put them in the same group?</p>","CAT","animals","bear, cat","","4","",""
"","","attention","50001","survey-text","206","248494","0.0-16.0-2.3","95","10","2023-06-05 18:24:54","b580c6cbc1ea35a8825601504c3c9405","","Mozilla/5.0 (Linux; Android 10; K) AppleWebKit/537.36 (KHTML, like Gecko) Chrome/114.0.0.0 Mobile Safari/537.36","WebKit","Chrome","114.0.0.0","AndroidOS","10","427825642","","","animals","","","","",""
"null","null","","","html-keyboard-response","207","249005","0.0-16.0-0.4","95","10","2023-06-05 18:24:54","b580c6cbc1ea35a8825601504c3c9405","","Mozilla/5.0 (Linux; Android 10; K) AppleWebKit/537.36 (KHTML, like Gecko) Chrome/114.0.0.0 Mobile Safari/537.36","WebKit","Chrome","114.0.0.0","AndroidOS","10","427825642","<p style=""font-size: 60px;"">+</p>","","","","","","",""
"1248","0","comparison","50001","html-button-response","208","250275","0.0-16.0-1.4-0.4","95","10","2023-06-05 18:24:54","b580c6cbc1ea35a8825601504c3c9405","","Mozilla/5.0 (Linux; Android 10; K) AppleWebKit/537.36 (KHTML, like Gecko) Chrome/114.0.0.0 Mobile Safari/537.36","WebKit","Chrome","114.0.0.0","AndroidOS","10","427825642","<span style='color:red; font-size:150%'> CAT</span> <span style='color:black;font-size:150%'> - </span><span style='color:green;font-size:150%'>DOG</span> <br> <p> Would you put them in the same group?</p>","DOG","animals","cat, dog","","5","",""
"","","attention","50001","survey-text","209","250309","0.0-16.0-2.4","95","10","2023-06-05 18:24:54","b580c6cbc1ea35a8825601504c3c9405","","Mozilla/5.0 (Linux; Android 10; K) AppleWebKit/537.36 (KHTML, like Gecko) Chrome/114.0.0.0 Mobile Safari/537.36","WebKit","Chrome","114.0.0.0","AndroidOS","10","427825642","","","animals","","","","",""
"null","null","","","html-keyboard-response","210","250838","0.0-16.0-0.5","95","10","2023-06-05 18:24:54","b580c6cbc1ea35a8825601504c3c9405","","Mozilla/5.0 (Linux; Android 10; K) AppleWebKit/537.36 (KHTML, like Gecko) Chrome/114.0.0.0 Mobile Safari/537.36","WebKit","Chrome","114.0.0.0","AndroidOS","10","427825642","<p style=""font-size: 60px;"">+</p>","","","","","","",""
"981","1","comparison","50001","html-button-response","211","251866","0.0-16.0-1.5-0.5","95","10","2023-06-05 18:24:54","b580c6cbc1ea35a8825601504c3c9405","","Mozilla/5.0 (Linux; Android 10; K) AppleWebKit/537.36 (KHTML, like Gecko) Chrome/114.0.0.0 Mobile Safari/537.36","WebKit","Chrome","114.0.0.0","AndroidOS","10","427825642","<span style='color:green; font-size:150%'> DOG</span> <span style='color:black;font-size:150%'> - </span><span style='color:blue;font-size:150%'>FISH</span> <br> <p> Would you put them in the same group?</p>","FISH","animals","dog, fish","","6","",""
"","","attention","50001","survey-text","212","251898","0.0-16.0-2.5","95","10","2023-06-05 18:24:54","b580c6cbc1ea35a8825601504c3c9405","","Mozilla/5.0 (Linux; Android 10; K) AppleWebKit/537.36 (KHTML, like Gecko) Chrome/114.0.0.0 Mobile Safari/537.36","WebKit","Chrome","114.0.0.0","AndroidOS","10","427825642","","","animals","","","","",""
"null","null","","","html-keyboard-response","213","252413","0.0-16.0-0.6","95","10","2023-06-05 18:24:54","b580c6cbc1ea35a8825601504c3c9405","","Mozilla/5.0 (Linux; Android 10; K) AppleWebKit/537.36 (KHTML, like Gecko) Chrome/114.0.0.0 Mobile Safari/537.36","WebKit","Chrome","114.0.0.0","AndroidOS","10","427825642","<p style=""font-size: 60px;"">+</p>","","","","","","",""
"1237","1","comparison","50001","html-button-response","214","253670","0.0-16.0-1.6-0.6","95","10","2023-06-05 18:24:54","b580c6cbc1ea35a8825601504c3c9405","","Mozilla/5.0 (Linux; Android 10; K) AppleWebKit/537.36 (KHTML, like Gecko) Chrome/114.0.0.0 Mobile Safari/537.36","WebKit","Chrome","114.0.0.0","AndroidOS","10","427825642","<span style='color:blue; font-size:150%'> FISH</span> <span style='color:black;font-size:150%'> - </span><span style='color:red;font-size:150%'>BIRD</span> <br> <p> Would you put them in the same group?</p>","BIRD","animals","fish, bird","","7","",""
"10234","bird","attention","50001","survey-text","215","263925","0.0-16.0-2.6","95","10","2023-06-05 18:24:54","b580c6cbc1ea35a8825601504c3c9405","","Mozilla/5.0 (Linux; Android 10; K) AppleWebKit/537.36 (KHTML, like Gecko) Chrome/114.0.0.0 Mobile Safari/537.36","WebKit","Chrome","114.0.0.0","AndroidOS","10","427825642","","","animals","fish, bird","1","","",""
"null","null","","","html-keyboard-response","216","264462","0.0-16.0-0.7","95","10","2023-06-05 18:24:54","b580c6cbc1ea35a8825601504c3c9405","","Mozilla/5.0 (Linux; Android 10; K) AppleWebKit/537.36 (KHTML, like Gecko) Chrome/114.0.0.0 Mobile Safari/537.36","WebKit","Chrome","114.0.0.0","AndroidOS","10","427825642","<p style=""font-size: 60px;"">+</p>","","","","","","",""
"2662","0","comparison","50001","html-button-response","217","267197","0.0-16.0-1.7-0.7","95","10","2023-06-05 18:24:54","b580c6cbc1ea35a8825601504c3c9405","","Mozilla/5.0 (Linux; Android 10; K) AppleWebKit/537.36 (KHTML, like Gecko) Chrome/114.0.0.0 Mobile Safari/537.36","WebKit","Chrome","114.0.0.0","AndroidOS","10","427825642","<span style='color:red; font-size:150%'> BIRD</span> <span style='color:black;font-size:150%'> - </span><span style='color:green;font-size:150%'>CHICKEN</span> <br> <p> Would you put them in the same group?</p>","CHICKEN","animals","bird, chicken","","8","",""
"","","attention","50001","survey-text","218","267207","0.0-16.0-2.7","95","10","2023-06-05 18:24:54","b580c6cbc1ea35a8825601504c3c9405","","Mozilla/5.0 (Linux; Android 10; K) AppleWebKit/537.36 (KHTML, like Gecko) Chrome/114.0.0.0 Mobile Safari/537.36","WebKit","Chrome","114.0.0.0","AndroidOS","10","427825642","","","animals","","","","",""
"null","null","","","html-keyboard-response","219","267718","0.0-16.0-0.8","95","10","2023-06-05 18:24:54","b580c6cbc1ea35a8825601504c3c9405","","Mozilla/5.0 (Linux; Android 10; K) AppleWebKit/537.36 (KHTML, like Gecko) Chrome/114.0.0.0 Mobile Safari/537.36","WebKit","Chrome","114.0.0.0","AndroidOS","10","427825642","<p style=""font-size: 60px;"">+</p>","","","","","","",""
"6676","0","comparison","50001","html-button-response","220","274436","0.0-16.0-1.8-0.8","95","10","2023-06-05 18:24:54","b580c6cbc1ea35a8825601504c3c9405","","Mozilla/5.0 (Linux; Android 10; K) AppleWebKit/537.36 (KHTML, like Gecko) Chrome/114.0.0.0 Mobile Safari/537.36","WebKit","Chrome","114.0.0.0","AndroidOS","10","427825642","<span style='color:green; font-size:150%'> CHICKEN</span> <span style='color:black;font-size:150%'> - </span><span style='color:blue;font-size:150%'>DUCK</span> <br> <p> Would you put them in the same group?</p>","DUCK","animals","chicken, duck","","9","",""
"","","attention","50001","survey-text","221","274468","0.0-16.0-2.8","95","10","2023-06-05 18:24:54","b580c6cbc1ea35a8825601504c3c9405","","Mozilla/5.0 (Linux; Android 10; K) AppleWebKit/537.36 (KHTML, like Gecko) Chrome/114.0.0.0 Mobile Safari/537.36","WebKit","Chrome","114.0.0.0","AndroidOS","10","427825642","","","animals","","","","",""
"null","null","","","html-keyboard-response","222","274998","0.0-16.0-0.9","95","10","2023-06-05 18:24:54","b580c6cbc1ea35a8825601504c3c9405","","Mozilla/5.0 (Linux; Android 10; K) AppleWebKit/537.36 (KHTML, like Gecko) Chrome/114.0.0.0 Mobile Safari/537.36","WebKit","Chrome","114.0.0.0","AndroidOS","10","427825642","<p style=""font-size: 60px;"">+</p>","","","","","","",""
"1247","0","comparison","50001","html-button-response","223","276299","0.0-16.0-1.9-0.9","95","10","2023-06-05 18:24:54","b580c6cbc1ea35a8825601504c3c9405","","Mozilla/5.0 (Linux; Android 10; K) AppleWebKit/537.36 (KHTML, like Gecko) Chrome/114.0.0.0 Mobile Safari/537.36","WebKit","Chrome","114.0.0.0","AndroidOS","10","427825642","<span style='color:blue; font-size:150%'> DUCK</span> <span style='color:black;font-size:150%'> - </span><span style='color:red;font-size:150%'>GOOSE</span> <br> <p> Would you put them in the same group?</p>","GOOSE","animals","duck, goose","","10","",""
"","","attention","50001","survey-text","224","276333","0.0-16.0-2.9","95","10","2023-06-05 18:24:54","b580c6cbc1ea35a8825601504c3c9405","","Mozilla/5.0 (Linux; Android 10; K) AppleWebKit/537.36 (KHTML, like Gecko) Chrome/114.0.0.0 Mobile Safari/537.36","WebKit","Chrome","114.0.0.0","AndroidOS","10","427825642","","","animals","","","","",""
"null","null","","","html-keyboard-response","225","276853","0.0-16.0-0.10","95","10","2023-06-05 18:24:54","b580c6cbc1ea35a8825601504c3c9405","","Mozilla/5.0 (Linux; Android 10; K) AppleWebKit/537.36 (KHTML, like Gecko) Chrome/114.0.0.0 Mobile Safari/537.36","WebKit","Chrome","114.0.0.0","AndroidOS","10","427825642","<p style=""font-size: 60px;"">+</p>","","","","","","",""
"1080","1","comparison","50001","html-button-response","226","277965","0.0-16.0-1.10-0.10","95","10","2023-06-05 18:24:54","b580c6cbc1ea35a8825601504c3c9405","","Mozilla/5.0 (Linux; Android 10; K) AppleWebKit/537.36 (KHTML, like Gecko) Chrome/114.0.0.0 Mobile Safari/537.36","WebKit","Chrome","114.0.0.0","AndroidOS","10","427825642","<span style='color:red; font-size:150%'> GOOSE</span> <span style='color:black;font-size:150%'> - </span><span style='color:green;font-size:150%'>HAMSTER</span> <br> <p> Would you put them in the same group?</p>","HAMSTER","animals","goose, hamster","","11","",""
