"rt","response","type_of_trial","subject","trial_type","trial_index","time_elapsed","internal_node_id","run_id","condition","recorded_at","source_code_version","ip","user_agent","device","browser","browser_version","platform","platform_version","ID","stimulus","cluster","domain","current_pair","attention","response_number","Experiment","question_order"
"3130","{""prolific_id"":""63eaa48e178ff1aadbf62963""}","prolific_id","","survey-text","0","3150","0.0-0.0","96","4","2023-06-05 18:25:07","b580c6cbc1ea35a8825601504c3c9405","","Mozilla/5.0 (Macintosh; Intel Mac OS X 10_15_7) AppleWebKit/537.36 (KHTML, like Gecko) Chrome/111.0.0.0 Safari/537.36","Macintosh","Chrome","111.0.0.0","OS X","10_15_7","739130931","","","","","","","",""
"100270","0","","","html-button-response","1","103422","0.0-1.0","96","4","2023-06-05 18:25:07","b580c6cbc1ea35a8825601504c3c9405","","Mozilla/5.0 (Macintosh; Intel Mac OS X 10_15_7) AppleWebKit/537.36 (KHTML, like Gecko) Chrome/111.0.0.0 Safari/537.36","Macintosh","Chrome","111.0.0.0","OS X","10_15_7","739130931","<p style=""font-size:20px;"">Welcome! This is a short experiment and should take you about 15-20 minutes to complete. </p>
        <p style=""font-size:20px;""> In this experiment you will be presented with pairs of words.</p>
        <p style=""font-size:20px;""> You will choose whether or not the pairs of words you see belong in the same group. </p>
        <p style=""font-size:20px;""> Exactly how you define a ""group"" is up to you - use whatever method feels comfortable to make these decisions, there are no wrong answers!</p>
        <p style=""font-size:20px;""> The pairs of words you see will be drawn from three different categories: </p>
        <p style=""font-size:20px;""> Animals, Occupations, and Foods. </p>
        <p style=""font-size:20px;""> In order to familiarize yourself with this procedure, you will first be given some practice with all three categories. </p>
         <p style=""font-size:20px;""> Press continue when you are ready to begin the practice trial.</p>","","","","","","",""
"1798","0","","","html-button-response","2","105221","0.0-2.0","96","4","2023-06-05 18:25:07","b580c6cbc1ea35a8825601504c3c9405","","Mozilla/5.0 (Macintosh; Intel Mac OS X 10_15_7) AppleWebKit/537.36 (KHTML, like Gecko) Chrome/111.0.0.0 Safari/537.36","Macintosh","Chrome","111.0.0.0","OS X","10_15_7","739130931","You will now practice providing groupings for the category: FOODS<br><br>","","","","","","",""
"null","null","","","html-keyboard-response","3","105224","0.0-3.0","96","4","2023-06-05 18:25:07","b580c6cbc1ea35a8825601504c3c9405","","Mozilla/5.0 (Macintosh; Intel Mac OS X 10_15_7) AppleWebKit/537.36 (KHTML, like Gecko) Chrome/111.0.0.0 Safari/537.36","Macintosh","Chrome","111.0.0.0","OS X","10_15_7","739130931","<p style=""font-size: 48px;""></p>","","","","","","",""
"null","null","","","html-keyboard-response","4","105730","0.0-4.0-0.0","96","4","2023-06-05 18:25:07","b580c6cbc1ea35a8825601504c3c9405","","Mozilla/5.0 (Macintosh; Intel Mac OS X 10_15_7) AppleWebKit/537.36 (KHTML, like Gecko) Chrome/111.0.0.0 Safari/537.36","Macintosh","Chrome","111.0.0.0","OS X","10_15_7","739130931","<p style=""font-size: 60px;"">+</p>","","","","","","",""
"","","practice","","html-button-response","5","105732","0.0-4.0-1.0-0.0","96","4","2023-06-05 18:25:07","b580c6cbc1ea35a8825601504c3c9405","","Mozilla/5.0 (Macintosh; Intel Mac OS X 10_15_7) AppleWebKit/537.36 (KHTML, like Gecko) Chrome/111.0.0.0 Safari/537.36","Macintosh","Chrome","111.0.0.0","OS X","10_15_7","739130931","","LEMON","","","","","",""
"","","practice_attention","practice","survey-text","6","105736","0.0-4.0-2.0","96","4","2023-06-05 18:25:07","b580c6cbc1ea35a8825601504c3c9405","","Mozilla/5.0 (Macintosh; Intel Mac OS X 10_15_7) AppleWebKit/537.36 (KHTML, like Gecko) Chrome/111.0.0.0 Safari/537.36","Macintosh","Chrome","111.0.0.0","OS X","10_15_7","739130931","","","foods","","","","",""
"null","null","","","html-keyboard-response","7","106247","0.0-4.0-0.1","96","4","2023-06-05 18:25:07","b580c6cbc1ea35a8825601504c3c9405","","Mozilla/5.0 (Macintosh; Intel Mac OS X 10_15_7) AppleWebKit/537.36 (KHTML, like Gecko) Chrome/111.0.0.0 Safari/537.36","Macintosh","Chrome","111.0.0.0","OS X","10_15_7","739130931","<p style=""font-size: 60px;"">+</p>","","","","","","",""
"2378","0","practice","","html-button-response","8","108626","0.0-4.0-1.1-0.1","96","4","2023-06-05 18:25:07","b580c6cbc1ea35a8825601504c3c9405","","Mozilla/5.0 (Macintosh; Intel Mac OS X 10_15_7) AppleWebKit/537.36 (KHTML, like Gecko) Chrome/111.0.0.0 Safari/537.36","Macintosh","Chrome","111.0.0.0","OS X","10_15_7","739130931","<span style='color:red; font-size:150%'> LEMON</span> <span style='color:black;font-size:150%'> - </span><span style='color:green;font-size:150%'>BANANA</span> <br> <p> Would you put them in the same group?</p>","BANANA","","","","","",""
"","","practice_attention","practice","survey-text","9","108628","0.0-4.0-2.1","96","4","2023-06-05 18:25:07","b580c6cbc1ea35a8825601504c3c9405","","Mozilla/5.0 (Macintosh; Intel Mac OS X 10_15_7) AppleWebKit/537.36 (KHTML, like Gecko) Chrome/111.0.0.0 Safari/537.36","Macintosh","Chrome","111.0.0.0","OS X","10_15_7","739130931","","","foods","","","","",""
"null","null","","","html-keyboard-response","10","109133","0.0-4.0-0.2","96","4","2023-06-05 18:25:07","b580c6cbc1ea35a8825601504c3c9405","","Mozilla/5.0 (Macintosh; Intel Mac OS X 10_15_7) AppleWebKit/537.36 (KHTML, like Gecko) Chrome/111.0.0.0 Safari/537.36","Macintosh","Chrome","111.0.0.0","OS X","10_15_7","739130931","<p style=""font-size: 60px;"">+</p>","","","","","","",""
"2498","1","practice","","html-button-response","11","111632","0.0-4.0-1.2-0.2","96","4","2023-06-05 18:25:07","b580c6cbc1ea35a8825601504c3c9405","","Mozilla/5.0 (Macintosh; Intel Mac OS X 10_15_7) AppleWebKit/537.36 (KHTML, like Gecko) Chrome/111.0.0.0 Safari/537.36","Macintosh","Chrome","111.0.0.0","OS X","10_15_7","739130931","<span style='color:green; font-size:150%'> BANANA</span> <span style='color:black;font-size:150%'> - </span><span style='color:blue;font-size:150%'>PASTA</span> <br> <p> Would you put them in the same group?</p>","PASTA","","","","","",""
"7102","banana","practice_attention","practice","survey-text","12","118737","0.0-4.0-2.2","96","4","2023-06-05 18:25:07","b580c6cbc1ea35a8825601504c3c9405","","Mozilla/5.0 (Macintosh; Intel Mac OS X 10_15_7) AppleWebKit/537.36 (KHTML, like Gecko) Chrome/111.0.0.0 Safari/537.36","Macintosh","Chrome","111.0.0.0","OS X","10_15_7","739130931","","","foods","banana, pasta","1","","",""
"null","null","","","html-keyboard-response","13","120247","0.0-4.0-3.2-0.2","96","4","2023-06-05 18:25:07","b580c6cbc1ea35a8825601504c3c9405","","Mozilla/5.0 (Macintosh; Intel Mac OS X 10_15_7) AppleWebKit/537.36 (KHTML, like Gecko) Chrome/111.0.0.0 Safari/537.36","Macintosh","Chrome","111.0.0.0","OS X","10_15_7","739130931","<span style='color:green; font-size:150%'>Correct!</span>","","","","","","",""
"null","null","","","html-keyboard-response","14","120751","0.0-4.0-0.3","96","4","2023-06-05 18:25:07","b580c6cbc1ea35a8825601504c3c9405","","Mozilla/5.0 (Macintosh; Intel Mac OS X 10_15_7) AppleWebKit/537.36 (KHTML, like Gecko) Chrome/111.0.0.0 Safari/537.36","Macintosh","Chrome","111.0.0.0","OS X","10_15_7","739130931","<p style=""font-size: 60px;"">+</p>","","","","","","",""
"3040","1","practice","","html-button-response","15","123792","0.0-4.0-1.3-0.3","96","4","2023-06-05 18:25:07","b580c6cbc1ea35a8825601504c3c9405","","Mozilla/5.0 (Macintosh; Intel Mac OS X 10_15_7) AppleWebKit/537.36 (KHTML, like Gecko) Chrome/111.0.0.0 Safari/537.36","Macintosh","Chrome","111.0.0.0","OS X","10_15_7","739130931","<span style='color:blue; font-size:150%'> PASTA</span> <span style='color:black;font-size:150%'> - </span><span style='color:red;font-size:150%'>SALAD</span> <br> <p> Would you put them in the same group?</p>","SALAD","","","","","",""
"","","practice_attention","practice","survey-text","16","123794","0.0-4.0-2.3","96","4","2023-06-05 18:25:07","b580c6cbc1ea35a8825601504c3c9405","","Mozilla/5.0 (Macintosh; Intel Mac OS X 10_15_7) AppleWebKit/537.36 (KHTML, like Gecko) Chrome/111.0.0.0 Safari/537.36","Macintosh","Chrome","111.0.0.0","OS X","10_15_7","739130931","","","foods","","","","",""
"1858","0","","","html-button-response","17","125656","0.0-5.0","96","4","2023-06-05 18:25:07","b580c6cbc1ea35a8825601504c3c9405","","Mozilla/5.0 (Macintosh; Intel Mac OS X 10_15_7) AppleWebKit/537.36 (KHTML, like Gecko) Chrome/111.0.0.0 Safari/537.36","Macintosh","Chrome","111.0.0.0","OS X","10_15_7","739130931","You will now practice providing groupings for the category: ANIMALS<br><br>","","","","","","",""
"null","null","","","html-keyboard-response","18","125659","0.0-6.0","96","4","2023-06-05 18:25:07","b580c6cbc1ea35a8825601504c3c9405","","Mozilla/5.0 (Macintosh; Intel Mac OS X 10_15_7) AppleWebKit/537.36 (KHTML, like Gecko) Chrome/111.0.0.0 Safari/537.36","Macintosh","Chrome","111.0.0.0","OS X","10_15_7","739130931","<p style=""font-size: 48px;""></p>","","","","","","",""
"null","null","","","html-keyboard-response","19","126166","0.0-7.0-0.0","96","4","2023-06-05 18:25:07","b580c6cbc1ea35a8825601504c3c9405","","Mozilla/5.0 (Macintosh; Intel Mac OS X 10_15_7) AppleWebKit/537.36 (KHTML, like Gecko) Chrome/111.0.0.0 Safari/537.36","Macintosh","Chrome","111.0.0.0","OS X","10_15_7","739130931","<p style=""font-size: 60px;"">+</p>","","","","","","",""
"","","practice","","html-button-response","20","126169","0.0-7.0-1.0-0.0","96","4","2023-06-05 18:25:07","b580c6cbc1ea35a8825601504c3c9405","","Mozilla/5.0 (Macintosh; Intel Mac OS X 10_15_7) AppleWebKit/537.36 (KHTML, like Gecko) Chrome/111.0.0.0 Safari/537.36","Macintosh","Chrome","111.0.0.0","OS X","10_15_7","739130931","","HORSE","","","","","",""
"","","practice_attention","practice","survey-text","21","126171","0.0-7.0-2.0","96","4","2023-06-05 18:25:07","b580c6cbc1ea35a8825601504c3c9405","","Mozilla/5.0 (Macintosh; Intel Mac OS X 10_15_7) AppleWebKit/537.36 (KHTML, like Gecko) Chrome/111.0.0.0 Safari/537.36","Macintosh","Chrome","111.0.0.0","OS X","10_15_7","739130931","","","animals","","","","",""
"null","null","","","html-keyboard-response","22","126679","0.0-7.0-0.1","96","4","2023-06-05 18:25:07","b580c6cbc1ea35a8825601504c3c9405","","Mozilla/5.0 (Macintosh; Intel Mac OS X 10_15_7) AppleWebKit/537.36 (KHTML, like Gecko) Chrome/111.0.0.0 Safari/537.36","Macintosh","Chrome","111.0.0.0","OS X","10_15_7","739130931","<p style=""font-size: 60px;"">+</p>","","","","","","",""
"1766","0","practice","","html-button-response","23","128447","0.0-7.0-1.1-0.1","96","4","2023-06-05 18:25:07","b580c6cbc1ea35a8825601504c3c9405","","Mozilla/5.0 (Macintosh; Intel Mac OS X 10_15_7) AppleWebKit/537.36 (KHTML, like Gecko) Chrome/111.0.0.0 Safari/537.36","Macintosh","Chrome","111.0.0.0","OS X","10_15_7","739130931","<span style='color:red; font-size:150%'> HORSE</span> <span style='color:black;font-size:150%'> - </span><span style='color:green;font-size:150%'>DONKEY</span> <br> <p> Would you put them in the same group?</p>","DONKEY","","","","","",""
"","","practice_attention","practice","survey-text","24","128450","0.0-7.0-2.1","96","4","2023-06-05 18:25:07","b580c6cbc1ea35a8825601504c3c9405","","Mozilla/5.0 (Macintosh; Intel Mac OS X 10_15_7) AppleWebKit/537.36 (KHTML, like Gecko) Chrome/111.0.0.0 Safari/537.36","Macintosh","Chrome","111.0.0.0","OS X","10_15_7","739130931","","","animals","","","","",""
"null","null","","","html-keyboard-response","25","128958","0.0-7.0-0.2","96","4","2023-06-05 18:25:07","b580c6cbc1ea35a8825601504c3c9405","","Mozilla/5.0 (Macintosh; Intel Mac OS X 10_15_7) AppleWebKit/537.36 (KHTML, like Gecko) Chrome/111.0.0.0 Safari/537.36","Macintosh","Chrome","111.0.0.0","OS X","10_15_7","739130931","<p style=""font-size: 60px;"">+</p>","","","","","","",""
"2430","0","practice","","html-button-response","26","131390","0.0-7.0-1.2-0.2","96","4","2023-06-05 18:25:07","b580c6cbc1ea35a8825601504c3c9405","","Mozilla/5.0 (Macintosh; Intel Mac OS X 10_15_7) AppleWebKit/537.36 (KHTML, like Gecko) Chrome/111.0.0.0 Safari/537.36","Macintosh","Chrome","111.0.0.0","OS X","10_15_7","739130931","<span style='color:green; font-size:150%'> DONKEY</span> <span style='color:black;font-size:150%'> - </span><span style='color:blue;font-size:150%'>CALF</span> <br> <p> Would you put them in the same group?</p>","CALF","","","","","",""
"5289","donkey","practice_attention","practice","survey-text","27","136681","0.0-7.0-2.2","96","4","2023-06-05 18:25:07","b580c6cbc1ea35a8825601504c3c9405","","Mozilla/5.0 (Macintosh; Intel Mac OS X 10_15_7) AppleWebKit/537.36 (KHTML, like Gecko) Chrome/111.0.0.0 Safari/537.36","Macintosh","Chrome","111.0.0.0","OS X","10_15_7","739130931","","","animals","donkey, calf","1","","",""
"null","null","","","html-keyboard-response","28","138190","0.0-7.0-3.2-0.2","96","4","2023-06-05 18:25:07","b580c6cbc1ea35a8825601504c3c9405","","Mozilla/5.0 (Macintosh; Intel Mac OS X 10_15_7) AppleWebKit/537.36 (KHTML, like Gecko) Chrome/111.0.0.0 Safari/537.36","Macintosh","Chrome","111.0.0.0","OS X","10_15_7","739130931","<span style='color:green; font-size:150%'>Correct!</span>","","","","","","",""
"null","null","","","html-keyboard-response","29","138696","0.0-7.0-0.3","96","4","2023-06-05 18:25:07","b580c6cbc1ea35a8825601504c3c9405","","Mozilla/5.0 (Macintosh; Intel Mac OS X 10_15_7) AppleWebKit/537.36 (KHTML, like Gecko) Chrome/111.0.0.0 Safari/537.36","Macintosh","Chrome","111.0.0.0","OS X","10_15_7","739130931","<p style=""font-size: 60px;"">+</p>","","","","","","",""
"1987","0","practice","","html-button-response","30","140684","0.0-7.0-1.3-0.3","96","4","2023-06-05 18:25:07","b580c6cbc1ea35a8825601504c3c9405","","Mozilla/5.0 (Macintosh; Intel Mac OS X 10_15_7) AppleWebKit/537.36 (KHTML, like Gecko) Chrome/111.0.0.0 Safari/537.36","Macintosh","Chrome","111.0.0.0","OS X","10_15_7","739130931","<span style='color:blue; font-size:150%'> CALF</span> <span style='color:black;font-size:150%'> - </span><span style='color:red;font-size:150%'>COW</span> <br> <p> Would you put them in the same group?</p>","COW","","","","","",""
"","","practice_attention","practice","survey-text","31","140686","0.0-7.0-2.3","96","4","2023-06-05 18:25:07","b580c6cbc1ea35a8825601504c3c9405","","Mozilla/5.0 (Macintosh; Intel Mac OS X 10_15_7) AppleWebKit/537.36 (KHTML, like Gecko) Chrome/111.0.0.0 Safari/537.36","Macintosh","Chrome","111.0.0.0","OS X","10_15_7","739130931","","","animals","","","","",""
"null","null","","","html-keyboard-response","32","141192","0.0-7.0-0.4","96","4","2023-06-05 18:25:07","b580c6cbc1ea35a8825601504c3c9405","","Mozilla/5.0 (Macintosh; Intel Mac OS X 10_15_7) AppleWebKit/537.36 (KHTML, like Gecko) Chrome/111.0.0.0 Safari/537.36","Macintosh","Chrome","111.0.0.0","OS X","10_15_7","739130931","<p style=""font-size: 60px;"">+</p>","","","","","","",""
"3526","1","practice","","html-button-response","33","144720","0.0-7.0-1.4-0.4","96","4","2023-06-05 18:25:07","b580c6cbc1ea35a8825601504c3c9405","","Mozilla/5.0 (Macintosh; Intel Mac OS X 10_15_7) AppleWebKit/537.36 (KHTML, like Gecko) Chrome/111.0.0.0 Safari/537.36","Macintosh","Chrome","111.0.0.0","OS X","10_15_7","739130931","<span style='color:red; font-size:150%'> COW</span> <span style='color:black;font-size:150%'> - </span><span style='color:green;font-size:150%'>HOLSTEIN_COW</span> <br> <p> Would you put them in the same group?</p>","HOLSTEIN_COW","","","","","",""
"","","practice_attention","practice","survey-text","34","144722","0.0-7.0-2.4","96","4","2023-06-05 18:25:07","b580c6cbc1ea35a8825601504c3c9405","","Mozilla/5.0 (Macintosh; Intel Mac OS X 10_15_7) AppleWebKit/537.36 (KHTML, like Gecko) Chrome/111.0.0.0 Safari/537.36","Macintosh","Chrome","111.0.0.0","OS X","10_15_7","739130931","","","animals","","","","",""
"null","null","","","html-keyboard-response","35","145230","0.0-7.0-0.5","96","4","2023-06-05 18:25:07","b580c6cbc1ea35a8825601504c3c9405","","Mozilla/5.0 (Macintosh; Intel Mac OS X 10_15_7) AppleWebKit/537.36 (KHTML, like Gecko) Chrome/111.0.0.0 Safari/537.36","Macintosh","Chrome","111.0.0.0","OS X","10_15_7","739130931","<p style=""font-size: 60px;"">+</p>","","","","","","",""
"4256","1","practice","","html-button-response","36","149488","0.0-7.0-1.5-0.5","96","4","2023-06-05 18:25:07","b580c6cbc1ea35a8825601504c3c9405","","Mozilla/5.0 (Macintosh; Intel Mac OS X 10_15_7) AppleWebKit/537.36 (KHTML, like Gecko) Chrome/111.0.0.0 Safari/537.36","Macintosh","Chrome","111.0.0.0","OS X","10_15_7","739130931","<span style='color:green; font-size:150%'> HOLSTEIN_COW</span> <span style='color:black;font-size:150%'> - </span><span style='color:blue;font-size:150%'>KOALA</span> <br> <p> Would you put them in the same group?</p>","KOALA","","","","","",""
"","","practice_attention","practice","survey-text","37","149491","0.0-7.0-2.5","96","4","2023-06-05 18:25:07","b580c6cbc1ea35a8825601504c3c9405","","Mozilla/5.0 (Macintosh; Intel Mac OS X 10_15_7) AppleWebKit/537.36 (KHTML, like Gecko) Chrome/111.0.0.0 Safari/537.36","Macintosh","Chrome","111.0.0.0","OS X","10_15_7","739130931","","","animals","","","","",""
"1572","0","","","html-button-response","38","151068","0.0-8.0","96","4","2023-06-05 18:25:07","b580c6cbc1ea35a8825601504c3c9405","","Mozilla/5.0 (Macintosh; Intel Mac OS X 10_15_7) AppleWebKit/537.36 (KHTML, like Gecko) Chrome/111.0.0.0 Safari/537.36","Macintosh","Chrome","111.0.0.0","OS X","10_15_7","739130931","You will now practice providing groupings for the category: OCCUPATIONS<br><br>","","","","","","",""
"null","null","","","html-keyboard-response","39","151070","0.0-9.0","96","4","2023-06-05 18:25:07","b580c6cbc1ea35a8825601504c3c9405","","Mozilla/5.0 (Macintosh; Intel Mac OS X 10_15_7) AppleWebKit/537.36 (KHTML, like Gecko) Chrome/111.0.0.0 Safari/537.36","Macintosh","Chrome","111.0.0.0","OS X","10_15_7","739130931","<p style=""font-size: 48px;""></p>","","","","","","",""
"null","null","","","html-keyboard-response","40","151577","0.0-10.0-0.0","96","4","2023-06-05 18:25:07","b580c6cbc1ea35a8825601504c3c9405","","Mozilla/5.0 (Macintosh; Intel Mac OS X 10_15_7) AppleWebKit/537.36 (KHTML, like Gecko) Chrome/111.0.0.0 Safari/537.36","Macintosh","Chrome","111.0.0.0","OS X","10_15_7","739130931","<p style=""font-size: 60px;"">+</p>","","","","","","",""
"","","practice","","html-button-response","41","151579","0.0-10.0-1.0-0.0","96","4","2023-06-05 18:25:07","b580c6cbc1ea35a8825601504c3c9405","","Mozilla/5.0 (Macintosh; Intel Mac OS X 10_15_7) AppleWebKit/537.36 (KHTML, like Gecko) Chrome/111.0.0.0 Safari/537.36","Macintosh","Chrome","111.0.0.0","OS X","10_15_7","739130931","","DOCTOR","","","","","",""
"","","practice_attention","practice","survey-text","42","151582","0.0-10.0-2.0","96","4","2023-06-05 18:25:07","b580c6cbc1ea35a8825601504c3c9405","","Mozilla/5.0 (Macintosh; Intel Mac OS X 10_15_7) AppleWebKit/537.36 (KHTML, like Gecko) Chrome/111.0.0.0 Safari/537.36","Macintosh","Chrome","111.0.0.0","OS X","10_15_7","739130931","","","occupations","","","","",""
"null","null","","","html-keyboard-response","43","152093","0.0-10.0-0.1","96","4","2023-06-05 18:25:07","b580c6cbc1ea35a8825601504c3c9405","","Mozilla/5.0 (Macintosh; Intel Mac OS X 10_15_7) AppleWebKit/537.36 (KHTML, like Gecko) Chrome/111.0.0.0 Safari/537.36","Macintosh","Chrome","111.0.0.0","OS X","10_15_7","739130931","<p style=""font-size: 60px;"">+</p>","","","","","","",""
"1553","0","practice","","html-button-response","44","153648","0.0-10.0-1.1-0.1","96","4","2023-06-05 18:25:07","b580c6cbc1ea35a8825601504c3c9405","","Mozilla/5.0 (Macintosh; Intel Mac OS X 10_15_7) AppleWebKit/537.36 (KHTML, like Gecko) Chrome/111.0.0.0 Safari/537.36","Macintosh","Chrome","111.0.0.0","OS X","10_15_7","739130931","<span style='color:red; font-size:150%'> DOCTOR</span> <span style='color:black;font-size:150%'> - </span><span style='color:green;font-size:150%'>LAWYER</span> <br> <p> Would you put them in the same group?</p>","LAWYER","","","","","",""
"","","practice_attention","practice","survey-text","45","153650","0.0-10.0-2.1","96","4","2023-06-05 18:25:07","b580c6cbc1ea35a8825601504c3c9405","","Mozilla/5.0 (Macintosh; Intel Mac OS X 10_15_7) AppleWebKit/537.36 (KHTML, like Gecko) Chrome/111.0.0.0 Safari/537.36","Macintosh","Chrome","111.0.0.0","OS X","10_15_7","739130931","","","occupations","","","","",""
"null","null","","","html-keyboard-response","46","154157","0.0-10.0-0.2","96","4","2023-06-05 18:25:07","b580c6cbc1ea35a8825601504c3c9405","","Mozilla/5.0 (Macintosh; Intel Mac OS X 10_15_7) AppleWebKit/537.36 (KHTML, like Gecko) Chrome/111.0.0.0 Safari/537.36","Macintosh","Chrome","111.0.0.0","OS X","10_15_7","739130931","<p style=""font-size: 60px;"">+</p>","","","","","","",""
"2559","0","practice","","html-button-response","47","156718","0.0-10.0-1.2-0.2","96","4","2023-06-05 18:25:07","b580c6cbc1ea35a8825601504c3c9405","","Mozilla/5.0 (Macintosh; Intel Mac OS X 10_15_7) AppleWebKit/537.36 (KHTML, like Gecko) Chrome/111.0.0.0 Safari/537.36","Macintosh","Chrome","111.0.0.0","OS X","10_15_7","739130931","<span style='color:green; font-size:150%'> LAWYER</span> <span style='color:black;font-size:150%'> - </span><span style='color:blue;font-size:150%'>POLICE_OFFICER</span> <br> <p> Would you put them in the same group?</p>","POLICE_OFFICER","","","","","",""
"3995","lawyer","practice_attention","practice","survey-text","48","160715","0.0-10.0-2.2","96","4","2023-06-05 18:25:07","b580c6cbc1ea35a8825601504c3c9405","","Mozilla/5.0 (Macintosh; Intel Mac OS X 10_15_7) AppleWebKit/537.36 (KHTML, like Gecko) Chrome/111.0.0.0 Safari/537.36","Macintosh","Chrome","111.0.0.0","OS X","10_15_7","739130931","","","occupations","lawyer, police_officer","1","","",""
"null","null","","","html-keyboard-response","49","162222","0.0-10.0-3.2-0.2","96","4","2023-06-05 18:25:07","b580c6cbc1ea35a8825601504c3c9405","","Mozilla/5.0 (Macintosh; Intel Mac OS X 10_15_7) AppleWebKit/537.36 (KHTML, like Gecko) Chrome/111.0.0.0 Safari/537.36","Macintosh","Chrome","111.0.0.0","OS X","10_15_7","739130931","<span style='color:green; font-size:150%'>Correct!</span>","","","","","","",""
"null","null","","","html-keyboard-response","50","162727","0.0-10.0-0.3","96","4","2023-06-05 18:25:07","b580c6cbc1ea35a8825601504c3c9405","","Mozilla/5.0 (Macintosh; Intel Mac OS X 10_15_7) AppleWebKit/537.36 (KHTML, like Gecko) Chrome/111.0.0.0 Safari/537.36","Macintosh","Chrome","111.0.0.0","OS X","10_15_7","739130931","<p style=""font-size: 60px;"">+</p>","","","","","","",""
"2131","0","practice","","html-button-response","51","164860","0.0-10.0-1.3-0.3","96","4","2023-06-05 18:25:07","b580c6cbc1ea35a8825601504c3c9405","","Mozilla/5.0 (Macintosh; Intel Mac OS X 10_15_7) AppleWebKit/537.36 (KHTML, like Gecko) Chrome/111.0.0.0 Safari/537.36","Macintosh","Chrome","111.0.0.0","OS X","10_15_7","739130931","<span style='color:blue; font-size:150%'> POLICE_OFFICER</span> <span style='color:black;font-size:150%'> - </span><span style='color:red;font-size:150%'>NURSE</span> <br> <p> Would you put them in the same group?</p>","NURSE","","","","","",""
"","","practice_attention","practice","survey-text","52","164863","0.0-10.0-2.3","96","4","2023-06-05 18:25:07","b580c6cbc1ea35a8825601504c3c9405","","Mozilla/5.0 (Macintosh; Intel Mac OS X 10_15_7) AppleWebKit/537.36 (KHTML, like Gecko) Chrome/111.0.0.0 Safari/537.36","Macintosh","Chrome","111.0.0.0","OS X","10_15_7","739130931","","","occupations","","","","",""
"null","null","","","html-keyboard-response","53","165372","0.0-10.0-0.4","96","4","2023-06-05 18:25:07","b580c6cbc1ea35a8825601504c3c9405","","Mozilla/5.0 (Macintosh; Intel Mac OS X 10_15_7) AppleWebKit/537.36 (KHTML, like Gecko) Chrome/111.0.0.0 Safari/537.36","Macintosh","Chrome","111.0.0.0","OS X","10_15_7","739130931","<p style=""font-size: 60px;"">+</p>","","","","","","",""
"1683","1","practice","","html-button-response","54","167057","0.0-10.0-1.4-0.4","96","4","2023-06-05 18:25:07","b580c6cbc1ea35a8825601504c3c9405","","Mozilla/5.0 (Macintosh; Intel Mac OS X 10_15_7) AppleWebKit/537.36 (KHTML, like Gecko) Chrome/111.0.0.0 Safari/537.36","Macintosh","Chrome","111.0.0.0","OS X","10_15_7","739130931","<span style='color:red; font-size:150%'> NURSE</span> <span style='color:black;font-size:150%'> - </span><span style='color:green;font-size:150%'>SECRETARY</span> <br> <p> Would you put them in the same group?</p>","SECRETARY","","","","","",""
"","","practice_attention","practice","survey-text","55","167059","0.0-10.0-2.4","96","4","2023-06-05 18:25:07","b580c6cbc1ea35a8825601504c3c9405","","Mozilla/5.0 (Macintosh; Intel Mac OS X 10_15_7) AppleWebKit/537.36 (KHTML, like Gecko) Chrome/111.0.0.0 Safari/537.36","Macintosh","Chrome","111.0.0.0","OS X","10_15_7","739130931","","","occupations","","","","",""
"null","null","","","html-keyboard-response","56","167564","0.0-10.0-0.5","96","4","2023-06-05 18:25:07","b580c6cbc1ea35a8825601504c3c9405","","Mozilla/5.0 (Macintosh; Intel Mac OS X 10_15_7) AppleWebKit/537.36 (KHTML, like Gecko) Chrome/111.0.0.0 Safari/537.36","Macintosh","Chrome","111.0.0.0","OS X","10_15_7","739130931","<p style=""font-size: 60px;"">+</p>","","","","","","",""
"1640","1","practice","","html-button-response","57","169206","0.0-10.0-1.5-0.5","96","4","2023-06-05 18:25:07","b580c6cbc1ea35a8825601504c3c9405","","Mozilla/5.0 (Macintosh; Intel Mac OS X 10_15_7) AppleWebKit/537.36 (KHTML, like Gecko) Chrome/111.0.0.0 Safari/537.36","Macintosh","Chrome","111.0.0.0","OS X","10_15_7","739130931","<span style='color:green; font-size:150%'> SECRETARY</span> <span style='color:black;font-size:150%'> - </span><span style='color:blue;font-size:150%'>RUNNER</span> <br> <p> Would you put them in the same group?</p>","RUNNER","","","","","",""
"","","practice_attention","practice","survey-text","58","169209","0.0-10.0-2.5","96","4","2023-06-05 18:25:07","b580c6cbc1ea35a8825601504c3c9405","","Mozilla/5.0 (Macintosh; Intel Mac OS X 10_15_7) AppleWebKit/537.36 (KHTML, like Gecko) Chrome/111.0.0.0 Safari/537.36","Macintosh","Chrome","111.0.0.0","OS X","10_15_7","739130931","","","occupations","","","","",""
"null","null","","","html-keyboard-response","59","169716","0.0-10.0-0.6","96","4","2023-06-05 18:25:07","b580c6cbc1ea35a8825601504c3c9405","","Mozilla/5.0 (Macintosh; Intel Mac OS X 10_15_7) AppleWebKit/537.36 (KHTML, like Gecko) Chrome/111.0.0.0 Safari/537.36","Macintosh","Chrome","111.0.0.0","OS X","10_15_7","739130931","<p style=""font-size: 60px;"">+</p>","","","","","","",""
"1787","1","practice","","html-button-response","60","171506","0.0-10.0-1.6-0.6","96","4","2023-06-05 18:25:07","b580c6cbc1ea35a8825601504c3c9405","","Mozilla/5.0 (Macintosh; Intel Mac OS X 10_15_7) AppleWebKit/537.36 (KHTML, like Gecko) Chrome/111.0.0.0 Safari/537.36","Macintosh","Chrome","111.0.0.0","OS X","10_15_7","739130931","<span style='color:blue; font-size:150%'> RUNNER</span> <span style='color:black;font-size:150%'> - </span><span style='color:red;font-size:150%'>TEACHER</span> <br> <p> Would you put them in the same group?</p>","TEACHER","","","","","",""
"","","practice_attention","practice","survey-text","61","171508","0.0-10.0-2.6","96","4","2023-06-05 18:25:07","b580c6cbc1ea35a8825601504c3c9405","","Mozilla/5.0 (Macintosh; Intel Mac OS X 10_15_7) AppleWebKit/537.36 (KHTML, like Gecko) Chrome/111.0.0.0 Safari/537.36","Macintosh","Chrome","111.0.0.0","OS X","10_15_7","739130931","","","occupations","","","","",""
"null","null","","","html-keyboard-response","62","172015","0.0-10.0-0.7","96","4","2023-06-05 18:25:07","b580c6cbc1ea35a8825601504c3c9405","","Mozilla/5.0 (Macintosh; Intel Mac OS X 10_15_7) AppleWebKit/537.36 (KHTML, like Gecko) Chrome/111.0.0.0 Safari/537.36","Macintosh","Chrome","111.0.0.0","OS X","10_15_7","739130931","<p style=""font-size: 60px;"">+</p>","","","","","","",""
"3421","1","practice","","html-button-response","63","175438","0.0-10.0-1.7-0.7","96","4","2023-06-05 18:25:07","b580c6cbc1ea35a8825601504c3c9405","","Mozilla/5.0 (Macintosh; Intel Mac OS X 10_15_7) AppleWebKit/537.36 (KHTML, like Gecko) Chrome/111.0.0.0 Safari/537.36","Macintosh","Chrome","111.0.0.0","OS X","10_15_7","739130931","<span style='color:red; font-size:150%'> TEACHER</span> <span style='color:black;font-size:150%'> - </span><span style='color:green;font-size:150%'>FIREMAN</span> <br> <p> Would you put them in the same group?</p>","FIREMAN","","","","","",""
"","","practice_attention","practice","survey-text","64","175441","0.0-10.0-2.7","96","4","2023-06-05 18:25:07","b580c6cbc1ea35a8825601504c3c9405","","Mozilla/5.0 (Macintosh; Intel Mac OS X 10_15_7) AppleWebKit/537.36 (KHTML, like Gecko) Chrome/111.0.0.0 Safari/537.36","Macintosh","Chrome","111.0.0.0","OS X","10_15_7","739130931","","","occupations","","","","",""
"33870","0","","","html-button-response","65","209314","0.0-11.0","96","4","2023-06-05 18:25:07","b580c6cbc1ea35a8825601504c3c9405","","Mozilla/5.0 (Macintosh; Intel Mac OS X 10_15_7) AppleWebKit/537.36 (KHTML, like Gecko) Chrome/111.0.0.0 Safari/537.36","Macintosh","Chrome","111.0.0.0","OS X","10_15_7","739130931","<p>Thank you for completing these practice lists. You will now move on to the actual experiment, where there will be more words to group. </p>
        <p>Word pairs may be repeated, and there may also be words that are new to you in this task. </p>
        <p>In these cases, please use your best judgment to make the decisions.</p>
        <p> <b>Please pay attention, your careful responses are important for our research.</b>  </p>
        <p> To ensure you are paying attention, you will also be asked to type in the words you group at random points during the experiment. You will not be provided feedback on your responses.</p>
        <p> <b>Your submission will be returned if you fail more than two attention checks!</b> </p>
         <p>Please indicate the pairings as well as you can! Click the button below to continue.</p>","","","","","","",""
"1629","0","","","html-button-response","66","210945","0.0-12.0","96","4","2023-06-05 18:25:07","b580c6cbc1ea35a8825601504c3c9405","","Mozilla/5.0 (Macintosh; Intel Mac OS X 10_15_7) AppleWebKit/537.36 (KHTML, like Gecko) Chrome/111.0.0.0 Safari/537.36","Macintosh","Chrome","111.0.0.0","OS X","10_15_7","739130931","You will now provide groupings for the category: FOODS<br><br>","","","","","","",""
"null","null","","","html-keyboard-response","67","210948","0.0-13.0","96","4","2023-06-05 18:25:07","b580c6cbc1ea35a8825601504c3c9405","","Mozilla/5.0 (Macintosh; Intel Mac OS X 10_15_7) AppleWebKit/537.36 (KHTML, like Gecko) Chrome/111.0.0.0 Safari/537.36","Macintosh","Chrome","111.0.0.0","OS X","10_15_7","739130931","<p style=""font-size: 48px;""></p>","","","","","","",""
"null","null","","","html-keyboard-response","68","211453","0.0-14.0-0.0","96","4","2023-06-05 18:25:07","b580c6cbc1ea35a8825601504c3c9405","","Mozilla/5.0 (Macintosh; Intel Mac OS X 10_15_7) AppleWebKit/537.36 (KHTML, like Gecko) Chrome/111.0.0.0 Safari/537.36","Macintosh","Chrome","111.0.0.0","OS X","10_15_7","739130931","<p style=""font-size: 60px;"">+</p>","","","","","","",""
"","2","comparison","50016","html-button-response","69","211456","0.0-14.0-1.0-0.0","96","4","2023-06-05 18:25:07","b580c6cbc1ea35a8825601504c3c9405","","Mozilla/5.0 (Macintosh; Intel Mac OS X 10_15_7) AppleWebKit/537.36 (KHTML, like Gecko) Chrome/111.0.0.0 Safari/537.36","Macintosh","Chrome","111.0.0.0","OS X","10_15_7","739130931","","APPLE","foods","","","1","",""
"","","attention","50016","survey-text","70","211459","0.0-14.0-2.0","96","4","2023-06-05 18:25:07","b580c6cbc1ea35a8825601504c3c9405","","Mozilla/5.0 (Macintosh; Intel Mac OS X 10_15_7) AppleWebKit/537.36 (KHTML, like Gecko) Chrome/111.0.0.0 Safari/537.36","Macintosh","Chrome","111.0.0.0","OS X","10_15_7","739130931","","","foods","","","","",""
"null","null","","","html-keyboard-response","71","211964","0.0-14.0-0.1","96","4","2023-06-05 18:25:07","b580c6cbc1ea35a8825601504c3c9405","","Mozilla/5.0 (Macintosh; Intel Mac OS X 10_15_7) AppleWebKit/537.36 (KHTML, like Gecko) Chrome/111.0.0.0 Safari/537.36","Macintosh","Chrome","111.0.0.0","OS X","10_15_7","739130931","<p style=""font-size: 60px;"">+</p>","","","","","","",""
"1756","0","comparison","50016","html-button-response","72","213723","0.0-14.0-1.1-0.1","96","4","2023-06-05 18:25:07","b580c6cbc1ea35a8825601504c3c9405","","Mozilla/5.0 (Macintosh; Intel Mac OS X 10_15_7) AppleWebKit/537.36 (KHTML, like Gecko) Chrome/111.0.0.0 Safari/537.36","Macintosh","Chrome","111.0.0.0","OS X","10_15_7","739130931","<span style='color:red; font-size:150%'> APPLE</span> <span style='color:black;font-size:150%'> - </span><span style='color:green;font-size:150%'>ORANGE</span> <br> <p> Would you put them in the same group?</p>","ORANGE","foods","apple, hello","","2","",""
"","","attention","50016","survey-text","73","213727","0.0-14.0-2.1","96","4","2023-06-05 18:25:07","b580c6cbc1ea35a8825601504c3c9405","","Mozilla/5.0 (Macintosh; Intel Mac OS X 10_15_7) AppleWebKit/537.36 (KHTML, like Gecko) Chrome/111.0.0.0 Safari/537.36","Macintosh","Chrome","111.0.0.0","OS X","10_15_7","739130931","","","foods","","","","",""
"null","null","","","html-keyboard-response","74","214235","0.0-14.0-0.2","96","4","2023-06-05 18:25:07","b580c6cbc1ea35a8825601504c3c9405","","Mozilla/5.0 (Macintosh; Intel Mac OS X 10_15_7) AppleWebKit/537.36 (KHTML, like Gecko) Chrome/111.0.0.0 Safari/537.36","Macintosh","Chrome","111.0.0.0","OS X","10_15_7","739130931","<p style=""font-size: 60px;"">+</p>","","","","","","",""
"2962","0","comparison","50016","html-button-response","75","217200","0.0-14.0-1.2-0.2","96","4","2023-06-05 18:25:07","b580c6cbc1ea35a8825601504c3c9405","","Mozilla/5.0 (Macintosh; Intel Mac OS X 10_15_7) AppleWebKit/537.36 (KHTML, like Gecko) Chrome/111.0.0.0 Safari/537.36","Macintosh","Chrome","111.0.0.0","OS X","10_15_7","739130931","<span style='color:green; font-size:150%'> ORANGE</span> <span style='color:black;font-size:150%'> - </span><span style='color:blue;font-size:150%'>APRICOTS</span> <br> <p> Would you put them in the same group?</p>","APRICOTS","foods","orange, apricots","","3","",""
"","","attention","50016","survey-text","76","217204","0.0-14.0-2.2","96","4","2023-06-05 18:25:07","b580c6cbc1ea35a8825601504c3c9405","","Mozilla/5.0 (Macintosh; Intel Mac OS X 10_15_7) AppleWebKit/537.36 (KHTML, like Gecko) Chrome/111.0.0.0 Safari/537.36","Macintosh","Chrome","111.0.0.0","OS X","10_15_7","739130931","","","foods","","","","",""
"null","null","","","html-keyboard-response","77","217710","0.0-14.0-0.3","96","4","2023-06-05 18:25:07","b580c6cbc1ea35a8825601504c3c9405","","Mozilla/5.0 (Macintosh; Intel Mac OS X 10_15_7) AppleWebKit/537.36 (KHTML, like Gecko) Chrome/111.0.0.0 Safari/537.36","Macintosh","Chrome","111.0.0.0","OS X","10_15_7","739130931","<p style=""font-size: 60px;"">+</p>","","","","","","",""
"2454","0","comparison","50016","html-button-response","78","220167","0.0-14.0-1.3-0.3","96","4","2023-06-05 18:25:07","b580c6cbc1ea35a8825601504c3c9405","","Mozilla/5.0 (Macintosh; Intel Mac OS X 10_15_7) AppleWebKit/537.36 (KHTML, like Gecko) Chrome/111.0.0.0 Safari/537.36","Macintosh","Chrome","111.0.0.0","OS X","10_15_7","739130931","<span style='color:blue; font-size:150%'> APRICOTS</span> <span style='color:black;font-size:150%'> - </span><span style='color:red;font-size:150%'>PEAR</span> <br> <p> Would you put them in the same group?</p>","PEAR","foods","apricots, pear","","4","",""
"","","attention","50016","survey-text","79","220169","0.0-14.0-2.3","96","4","2023-06-05 18:25:07","b580c6cbc1ea35a8825601504c3c9405","","Mozilla/5.0 (Macintosh; Intel Mac OS X 10_15_7) AppleWebKit/537.36 (KHTML, like Gecko) Chrome/111.0.0.0 Safari/537.36","Macintosh","Chrome","111.0.0.0","OS X","10_15_7","739130931","","","foods","","","","",""
"null","null","","","html-keyboard-response","80","220677","0.0-14.0-0.4","96","4","2023-06-05 18:25:07","b580c6cbc1ea35a8825601504c3c9405","","Mozilla/5.0 (Macintosh; Intel Mac OS X 10_15_7) AppleWebKit/537.36 (KHTML, like Gecko) Chrome/111.0.0.0 Safari/537.36","Macintosh","Chrome","111.0.0.0","OS X","10_15_7","739130931","<p style=""font-size: 60px;"">+</p>","","","","","","",""
"3537","0","comparison","50016","html-button-response","81","224218","0.0-14.0-1.4-0.4","96","4","2023-06-05 18:25:07","b580c6cbc1ea35a8825601504c3c9405","","Mozilla/5.0 (Macintosh; Intel Mac OS X 10_15_7) AppleWebKit/537.36 (KHTML, like Gecko) Chrome/111.0.0.0 Safari/537.36","Macintosh","Chrome","111.0.0.0","OS X","10_15_7","739130931","<span style='color:red; font-size:150%'> PEAR</span> <span style='color:black;font-size:150%'> - </span><span style='color:green;font-size:150%'>GRAPES</span> <br> <p> Would you put them in the same group?</p>","GRAPES","foods","pear, grapes","","5","",""
"","","attention","50016","survey-text","82","224221","0.0-14.0-2.4","96","4","2023-06-05 18:25:07","b580c6cbc1ea35a8825601504c3c9405","","Mozilla/5.0 (Macintosh; Intel Mac OS X 10_15_7) AppleWebKit/537.36 (KHTML, like Gecko) Chrome/111.0.0.0 Safari/537.36","Macintosh","Chrome","111.0.0.0","OS X","10_15_7","739130931","","","foods","","","","",""
"null","null","","","html-keyboard-response","83","224730","0.0-14.0-0.5","96","4","2023-06-05 18:25:07","b580c6cbc1ea35a8825601504c3c9405","","Mozilla/5.0 (Macintosh; Intel Mac OS X 10_15_7) AppleWebKit/537.36 (KHTML, like Gecko) Chrome/111.0.0.0 Safari/537.36","Macintosh","Chrome","111.0.0.0","OS X","10_15_7","739130931","<p style=""font-size: 60px;"">+</p>","","","","","","",""
"2793","1","comparison","50016","html-button-response","84","227527","0.0-14.0-1.5-0.5","96","4","2023-06-05 18:25:07","b580c6cbc1ea35a8825601504c3c9405","","Mozilla/5.0 (Macintosh; Intel Mac OS X 10_15_7) AppleWebKit/537.36 (KHTML, like Gecko) Chrome/111.0.0.0 Safari/537.36","Macintosh","Chrome","111.0.0.0","OS X","10_15_7","739130931","<span style='color:green; font-size:150%'> GRAPES</span> <span style='color:black;font-size:150%'> - </span><span style='color:blue;font-size:150%'>CARROTS</span> <br> <p> Would you put them in the same group?</p>","CARROTS","foods","grapes, carrots","","6","",""
"","","attention","50016","survey-text","85","227529","0.0-14.0-2.5","96","4","2023-06-05 18:25:07","b580c6cbc1ea35a8825601504c3c9405","","Mozilla/5.0 (Macintosh; Intel Mac OS X 10_15_7) AppleWebKit/537.36 (KHTML, like Gecko) Chrome/111.0.0.0 Safari/537.36","Macintosh","Chrome","111.0.0.0","OS X","10_15_7","739130931","","","foods","","","","",""
"null","null","","","html-keyboard-response","86","228037","0.0-14.0-0.6","96","4","2023-06-05 18:25:07","b580c6cbc1ea35a8825601504c3c9405","","Mozilla/5.0 (Macintosh; Intel Mac OS X 10_15_7) AppleWebKit/537.36 (KHTML, like Gecko) Chrome/111.0.0.0 Safari/537.36","Macintosh","Chrome","111.0.0.0","OS X","10_15_7","739130931","<p style=""font-size: 60px;"">+</p>","","","","","","",""
"1666","0","comparison","50016","html-button-response","87","229707","0.0-14.0-1.6-0.6","96","4","2023-06-05 18:25:07","b580c6cbc1ea35a8825601504c3c9405","","Mozilla/5.0 (Macintosh; Intel Mac OS X 10_15_7) AppleWebKit/537.36 (KHTML, like Gecko) Chrome/111.0.0.0 Safari/537.36","Macintosh","Chrome","111.0.0.0","OS X","10_15_7","739130931","<span style='color:blue; font-size:150%'> CARROTS</span> <span style='color:black;font-size:150%'> - </span><span style='color:red;font-size:150%'>BROCCOLI</span> <br> <p> Would you put them in the same group?</p>","BROCCOLI","foods","carrots, broccoli","","7","",""
"3320","carrots","attention","50016","survey-text","88","233032","0.0-14.0-2.6","96","4","2023-06-05 18:25:07","b580c6cbc1ea35a8825601504c3c9405","","Mozilla/5.0 (Macintosh; Intel Mac OS X 10_15_7) AppleWebKit/537.36 (KHTML, like Gecko) Chrome/111.0.0.0 Safari/537.36","Macintosh","Chrome","111.0.0.0","OS X","10_15_7","739130931","","","foods","carrots, broccoli","1","","",""
"null","null","","","html-keyboard-response","89","233540","0.0-14.0-0.7","96","4","2023-06-05 18:25:07","b580c6cbc1ea35a8825601504c3c9405","","Mozilla/5.0 (Macintosh; Intel Mac OS X 10_15_7) AppleWebKit/537.36 (KHTML, like Gecko) Chrome/111.0.0.0 Safari/537.36","Macintosh","Chrome","111.0.0.0","OS X","10_15_7","739130931","<p style=""font-size: 60px;"">+</p>","","","","","","",""
"4267","1","comparison","50016","html-button-response","90","237811","0.0-14.0-1.7-0.7","96","4","2023-06-05 18:25:07","b580c6cbc1ea35a8825601504c3c9405","","Mozilla/5.0 (Macintosh; Intel Mac OS X 10_15_7) AppleWebKit/537.36 (KHTML, like Gecko) Chrome/111.0.0.0 Safari/537.36","Macintosh","Chrome","111.0.0.0","OS X","10_15_7","739130931","<span style='color:red; font-size:150%'> BROCCOLI</span> <span style='color:black;font-size:150%'> - </span><span style='color:green;font-size:150%'>LEMON</span> <br> <p> Would you put them in the same group?</p>","LEMON","foods","broccoli, lemon","","8","",""
"","","attention","50016","survey-text","91","237814","0.0-14.0-2.7","96","4","2023-06-05 18:25:07","b580c6cbc1ea35a8825601504c3c9405","","Mozilla/5.0 (Macintosh; Intel Mac OS X 10_15_7) AppleWebKit/537.36 (KHTML, like Gecko) Chrome/111.0.0.0 Safari/537.36","Macintosh","Chrome","111.0.0.0","OS X","10_15_7","739130931","","","foods","","","","",""
"null","null","","","html-keyboard-response","92","238318","0.0-14.0-0.8","96","4","2023-06-05 18:25:07","b580c6cbc1ea35a8825601504c3c9405","","Mozilla/5.0 (Macintosh; Intel Mac OS X 10_15_7) AppleWebKit/537.36 (KHTML, like Gecko) Chrome/111.0.0.0 Safari/537.36","Macintosh","Chrome","111.0.0.0","OS X","10_15_7","739130931","<p style=""font-size: 60px;"">+</p>","","","","","","",""
"9336","1","comparison","50016","html-button-response","93","247658","0.0-14.0-1.8-0.8","96","4","2023-06-05 18:25:07","b580c6cbc1ea35a8825601504c3c9405","","Mozilla/5.0 (Macintosh; Intel Mac OS X 10_15_7) AppleWebKit/537.36 (KHTML, like Gecko) Chrome/111.0.0.0 Safari/537.36","Macintosh","Chrome","111.0.0.0","OS X","10_15_7","739130931","<span style='color:green; font-size:150%'> LEMON</span> <span style='color:black;font-size:150%'> - </span><span style='color:blue;font-size:150%'>MUSHROOMS</span> <br> <p> Would you put them in the same group?</p>","MUSHROOMS","foods","lemon, mushrooms","","9","",""
"","","attention","50016","survey-text","94","247660","0.0-14.0-2.8","96","4","2023-06-05 18:25:07","b580c6cbc1ea35a8825601504c3c9405","","Mozilla/5.0 (Macintosh; Intel Mac OS X 10_15_7) AppleWebKit/537.36 (KHTML, like Gecko) Chrome/111.0.0.0 Safari/537.36","Macintosh","Chrome","111.0.0.0","OS X","10_15_7","739130931","","","foods","","","","",""
"null","null","","","html-keyboard-response","95","248169","0.0-14.0-0.9","96","4","2023-06-05 18:25:07","b580c6cbc1ea35a8825601504c3c9405","","Mozilla/5.0 (Macintosh; Intel Mac OS X 10_15_7) AppleWebKit/537.36 (KHTML, like Gecko) Chrome/111.0.0.0 Safari/537.36","Macintosh","Chrome","111.0.0.0","OS X","10_15_7","739130931","<p style=""font-size: 60px;"">+</p>","","","","","","",""
"3368","0","comparison","50016","html-button-response","96","251542","0.0-14.0-1.9-0.9","96","4","2023-06-05 18:25:07","b580c6cbc1ea35a8825601504c3c9405","","Mozilla/5.0 (Macintosh; Intel Mac OS X 10_15_7) AppleWebKit/537.36 (KHTML, like Gecko) Chrome/111.0.0.0 Safari/537.36","Macintosh","Chrome","111.0.0.0","OS X","10_15_7","739130931","<span style='color:blue; font-size:150%'> MUSHROOMS</span> <span style='color:black;font-size:150%'> - </span><span style='color:red;font-size:150%'>PEAS</span> <br> <p> Would you put them in the same group?</p>","PEAS","foods","mushrooms, peas","","10","",""
"","","attention","50016","survey-text","97","251546","0.0-14.0-2.9","96","4","2023-06-05 18:25:07","b580c6cbc1ea35a8825601504c3c9405","","Mozilla/5.0 (Macintosh; Intel Mac OS X 10_15_7) AppleWebKit/537.36 (KHTML, like Gecko) Chrome/111.0.0.0 Safari/537.36","Macintosh","Chrome","111.0.0.0","OS X","10_15_7","739130931","","","foods","","","","",""
"null","null","","","html-keyboard-response","98","252052","0.0-14.0-0.10","96","4","2023-06-05 18:25:07","b580c6cbc1ea35a8825601504c3c9405","","Mozilla/5.0 (Macintosh; Intel Mac OS X 10_15_7) AppleWebKit/537.36 (KHTML, like Gecko) Chrome/111.0.0.0 Safari/537.36","Macintosh","Chrome","111.0.0.0","OS X","10_15_7","739130931","<p style=""font-size: 60px;"">+</p>","","","","","","",""
"1851","0","comparison","50016","html-button-response","99","253906","0.0-14.0-1.10-0.10","96","4","2023-06-05 18:25:07","b580c6cbc1ea35a8825601504c3c9405","","Mozilla/5.0 (Macintosh; Intel Mac OS X 10_15_7) AppleWebKit/537.36 (KHTML, like Gecko) Chrome/111.0.0.0 Safari/537.36","Macintosh","Chrome","111.0.0.0","OS X","10_15_7","739130931","<span style='color:red; font-size:150%'> PEAS</span> <span style='color:black;font-size:150%'> - </span><span style='color:green;font-size:150%'>GREEN BEANS</span> <br> <p> Would you put them in the same group?</p>","GREEN BEANS","foods","peas, green beans","","11","",""
"","","attention","50016","survey-text","100","253909","0.0-14.0-2.10","96","4","2023-06-05 18:25:07","b580c6cbc1ea35a8825601504c3c9405","","Mozilla/5.0 (Macintosh; Intel Mac OS X 10_15_7) AppleWebKit/537.36 (KHTML, like Gecko) Chrome/111.0.0.0 Safari/537.36","Macintosh","Chrome","111.0.0.0","OS X","10_15_7","739130931","","","foods","","","","",""
"null","null","","","html-keyboard-response","101","254419","0.0-14.0-0.11","96","4","2023-06-05 18:25:07","b580c6cbc1ea35a8825601504c3c9405","","Mozilla/5.0 (Macintosh; Intel Mac OS X 10_15_7) AppleWebKit/537.36 (KHTML, like Gecko) Chrome/111.0.0.0 Safari/537.36","Macintosh","Chrome","111.0.0.0","OS X","10_15_7","739130931","<p style=""font-size: 60px;"">+</p>","","","","","","",""
"2024","1","comparison","50016","html-button-response","102","256447","0.0-14.0-1.11-0.11","96","4","2023-06-05 18:25:07","b580c6cbc1ea35a8825601504c3c9405","","Mozilla/5.0 (Macintosh; Intel Mac OS X 10_15_7) AppleWebKit/537.36 (KHTML, like Gecko) Chrome/111.0.0.0 Safari/537.36","Macintosh","Chrome","111.0.0.0","OS X","10_15_7","739130931","<span style='color:green; font-size:150%'> GREEN BEANS</span> <span style='color:black;font-size:150%'> - </span><span style='color:blue;font-size:150%'>SOUP</span> <br> <p> Would you put them in the same group?</p>","SOUP","foods","green beans, soup","","12","",""
"","","attention","50016","survey-text","103","256451","0.0-14.0-2.11","96","4","2023-06-05 18:25:07","b580c6cbc1ea35a8825601504c3c9405","","Mozilla/5.0 (Macintosh; Intel Mac OS X 10_15_7) AppleWebKit/537.36 (KHTML, like Gecko) Chrome/111.0.0.0 Safari/537.36","Macintosh","Chrome","111.0.0.0","OS X","10_15_7","739130931","","","foods","","","","",""
"null","null","","","html-keyboard-response","104","256957","0.0-14.0-0.12","96","4","2023-06-05 18:25:07","b580c6cbc1ea35a8825601504c3c9405","","Mozilla/5.0 (Macintosh; Intel Mac OS X 10_15_7) AppleWebKit/537.36 (KHTML, like Gecko) Chrome/111.0.0.0 Safari/537.36","Macintosh","Chrome","111.0.0.0","OS X","10_15_7","739130931","<p style=""font-size: 60px;"">+</p>","","","","","","",""
"1671","1","comparison","50016","html-button-response","105","258632","0.0-14.0-1.12-0.12","96","4","2023-06-05 18:25:07","b580c6cbc1ea35a8825601504c3c9405","","Mozilla/5.0 (Macintosh; Intel Mac OS X 10_15_7) AppleWebKit/537.36 (KHTML, like Gecko) Chrome/111.0.0.0 Safari/537.36","Macintosh","Chrome","111.0.0.0","OS X","10_15_7","739130931","<span style='color:blue; font-size:150%'> SOUP</span> <span style='color:black;font-size:150%'> - </span><span style='color:red;font-size:150%'>STEAK</span> <br> <p> Would you put them in the same group?</p>","STEAK","foods","soup, steak","","13","",""
"","","attention","50016","survey-text","106","258635","0.0-14.0-2.12","96","4","2023-06-05 18:25:07","b580c6cbc1ea35a8825601504c3c9405","","Mozilla/5.0 (Macintosh; Intel Mac OS X 10_15_7) AppleWebKit/537.36 (KHTML, like Gecko) Chrome/111.0.0.0 Safari/537.36","Macintosh","Chrome","111.0.0.0","OS X","10_15_7","739130931","","","foods","","","","",""
"null","null","","","html-keyboard-response","107","259146","0.0-14.0-0.13","96","4","2023-06-05 18:25:07","b580c6cbc1ea35a8825601504c3c9405","","Mozilla/5.0 (Macintosh; Intel Mac OS X 10_15_7) AppleWebKit/537.36 (KHTML, like Gecko) Chrome/111.0.0.0 Safari/537.36","Macintosh","Chrome","111.0.0.0","OS X","10_15_7","739130931","<p style=""font-size: 60px;"">+</p>","","","","","","",""
"3462","0","comparison","50016","html-button-response","108","262612","0.0-14.0-1.13-0.13","96","4","2023-06-05 18:25:07","b580c6cbc1ea35a8825601504c3c9405","","Mozilla/5.0 (Macintosh; Intel Mac OS X 10_15_7) AppleWebKit/537.36 (KHTML, like Gecko) Chrome/111.0.0.0 Safari/537.36","Macintosh","Chrome","111.0.0.0","OS X","10_15_7","739130931","<span style='color:red; font-size:150%'> STEAK</span> <span style='color:black;font-size:150%'> - </span><span style='color:green;font-size:150%'>FISH</span> <br> <p> Would you put them in the same group?</p>","FISH","foods","steak, fish","","14","",""
"","","attention","50016","survey-text","109","262616","0.0-14.0-2.13","96","4","2023-06-05 18:25:07","b580c6cbc1ea35a8825601504c3c9405","","Mozilla/5.0 (Macintosh; Intel Mac OS X 10_15_7) AppleWebKit/537.36 (KHTML, like Gecko) Chrome/111.0.0.0 Safari/537.36","Macintosh","Chrome","111.0.0.0","OS X","10_15_7","739130931","","","foods","","","","",""
"null","null","","","html-keyboard-response","110","263122","0.0-14.0-0.14","96","4","2023-06-05 18:25:07","b580c6cbc1ea35a8825601504c3c9405","","Mozilla/5.0 (Macintosh; Intel Mac OS X 10_15_7) AppleWebKit/537.36 (KHTML, like Gecko) Chrome/111.0.0.0 Safari/537.36","Macintosh","Chrome","111.0.0.0","OS X","10_15_7","739130931","<p style=""font-size: 60px;"">+</p>","","","","","","",""
"2213","0","comparison","50016","html-button-response","111","265337","0.0-14.0-1.14-0.14","96","4","2023-06-05 18:25:07","b580c6cbc1ea35a8825601504c3c9405","","Mozilla/5.0 (Macintosh; Intel Mac OS X 10_15_7) AppleWebKit/537.36 (KHTML, like Gecko) Chrome/111.0.0.0 Safari/537.36","Macintosh","Chrome","111.0.0.0","OS X","10_15_7","739130931","<span style='color:green; font-size:150%'> FISH</span> <span style='color:black;font-size:150%'> - </span><span style='color:blue;font-size:150%'>CHICKEN</span> <br> <p> Would you put them in the same group?</p>","CHICKEN","foods","fish, chicken","","15","",""
"","","attention","50016","survey-text","112","265341","0.0-14.0-2.14","96","4","2023-06-05 18:25:07","b580c6cbc1ea35a8825601504c3c9405","","Mozilla/5.0 (Macintosh; Intel Mac OS X 10_15_7) AppleWebKit/537.36 (KHTML, like Gecko) Chrome/111.0.0.0 Safari/537.36","Macintosh","Chrome","111.0.0.0","OS X","10_15_7","739130931","","","foods","","","","",""
"null","null","","","html-keyboard-response","113","265849","0.0-14.0-0.15","96","4","2023-06-05 18:25:07","b580c6cbc1ea35a8825601504c3c9405","","Mozilla/5.0 (Macintosh; Intel Mac OS X 10_15_7) AppleWebKit/537.36 (KHTML, like Gecko) Chrome/111.0.0.0 Safari/537.36","Macintosh","Chrome","111.0.0.0","OS X","10_15_7","739130931","<p style=""font-size: 60px;"">+</p>","","","","","","",""
"1646","0","comparison","50016","html-button-response","114","267500","0.0-14.0-1.15-0.15","96","4","2023-06-05 18:25:07","b580c6cbc1ea35a8825601504c3c9405","","Mozilla/5.0 (Macintosh; Intel Mac OS X 10_15_7) AppleWebKit/537.36 (KHTML, like Gecko) Chrome/111.0.0.0 Safari/537.36","Macintosh","Chrome","111.0.0.0","OS X","10_15_7","739130931","<span style='color:blue; font-size:150%'> CHICKEN</span> <span style='color:black;font-size:150%'> - </span><span style='color:red;font-size:150%'>PORK</span> <br> <p> Would you put them in the same group?</p>","PORK","foods","chicken, pork","","16","",""
"","","attention","50016","survey-text","115","267504","0.0-14.0-2.15","96","4","2023-06-05 18:25:07","b580c6cbc1ea35a8825601504c3c9405","","Mozilla/5.0 (Macintosh; Intel Mac OS X 10_15_7) AppleWebKit/537.36 (KHTML, like Gecko) Chrome/111.0.0.0 Safari/537.36","Macintosh","Chrome","111.0.0.0","OS X","10_15_7","739130931","","","foods","","","","",""
"null","null","","","html-keyboard-response","116","268009","0.0-14.0-0.16","96","4","2023-06-05 18:25:07","b580c6cbc1ea35a8825601504c3c9405","","Mozilla/5.0 (Macintosh; Intel Mac OS X 10_15_7) AppleWebKit/537.36 (KHTML, like Gecko) Chrome/111.0.0.0 Safari/537.36","Macintosh","Chrome","111.0.0.0","OS X","10_15_7","739130931","<p style=""font-size: 60px;"">+</p>","","","","","","",""
"2270","1","comparison","50016","html-button-response","117","270284","0.0-14.0-1.16-0.16","96","4","2023-06-05 18:25:07","b580c6cbc1ea35a8825601504c3c9405","","Mozilla/5.0 (Macintosh; Intel Mac OS X 10_15_7) AppleWebKit/537.36 (KHTML, like Gecko) Chrome/111.0.0.0 Safari/537.36","Macintosh","Chrome","111.0.0.0","OS X","10_15_7","739130931","<span style='color:red; font-size:150%'> PORK</span> <span style='color:black;font-size:150%'> - </span><span style='color:green;font-size:150%'>TOFU</span> <br> <p> Would you put them in the same group?</p>","TOFU","foods","pork, tofu","","17","",""
"","","attention","50016","survey-text","118","270287","0.0-14.0-2.16","96","4","2023-06-05 18:25:07","b580c6cbc1ea35a8825601504c3c9405","","Mozilla/5.0 (Macintosh; Intel Mac OS X 10_15_7) AppleWebKit/537.36 (KHTML, like Gecko) Chrome/111.0.0.0 Safari/537.36","Macintosh","Chrome","111.0.0.0","OS X","10_15_7","739130931","","","foods","","","","",""
"null","null","","","html-keyboard-response","119","270793","0.0-14.0-0.17","96","4","2023-06-05 18:25:07","b580c6cbc1ea35a8825601504c3c9405","","Mozilla/5.0 (Macintosh; Intel Mac OS X 10_15_7) AppleWebKit/537.36 (KHTML, like Gecko) Chrome/111.0.0.0 Safari/537.36","Macintosh","Chrome","111.0.0.0","OS X","10_15_7","739130931","<p style=""font-size: 60px;"">+</p>","","","","","","",""
"2607","1","comparison","50016","html-button-response","120","273405","0.0-14.0-1.17-0.17","96","4","2023-06-05 18:25:07","b580c6cbc1ea35a8825601504c3c9405","","Mozilla/5.0 (Macintosh; Intel Mac OS X 10_15_7) AppleWebKit/537.36 (KHTML, like Gecko) Chrome/111.0.0.0 Safari/537.36","Macintosh","Chrome","111.0.0.0","OS X","10_15_7","739130931","<span style='color:green; font-size:150%'> TOFU</span> <span style='color:black;font-size:150%'> - </span><span style='color:blue;font-size:150%'>GUACAMOLE</span> <br> <p> Would you put them in the same group?</p>","GUACAMOLE","foods","tofu, guacamole","","18","",""
"","","attention","50016","survey-text","121","273409","0.0-14.0-2.17","96","4","2023-06-05 18:25:07","b580c6cbc1ea35a8825601504c3c9405","","Mozilla/5.0 (Macintosh; Intel Mac OS X 10_15_7) AppleWebKit/537.36 (KHTML, like Gecko) Chrome/111.0.0.0 Safari/537.36","Macintosh","Chrome","111.0.0.0","OS X","10_15_7","739130931","","","foods","","","","",""
"null","null","","","html-keyboard-response","122","273922","0.0-14.0-0.18","96","4","2023-06-05 18:25:07","b580c6cbc1ea35a8825601504c3c9405","","Mozilla/5.0 (Macintosh; Intel Mac OS X 10_15_7) AppleWebKit/537.36 (KHTML, like Gecko) Chrome/111.0.0.0 Safari/537.36","Macintosh","Chrome","111.0.0.0","OS X","10_15_7","739130931","<p style=""font-size: 60px;"">+</p>","","","","","","",""
"4003","0","comparison","50016","html-button-response","123","277929","0.0-14.0-1.18-0.18","96","4","2023-06-05 18:25:07","b580c6cbc1ea35a8825601504c3c9405","","Mozilla/5.0 (Macintosh; Intel Mac OS X 10_15_7) AppleWebKit/537.36 (KHTML, like Gecko) Chrome/111.0.0.0 Safari/537.36","Macintosh","Chrome","111.0.0.0","OS X","10_15_7","739130931","<span style='color:blue; font-size:150%'> GUACAMOLE</span> <span style='color:black;font-size:150%'> - </span><span style='color:red;font-size:150%'>QUESO</span> <br> <p> Would you put them in the same group?</p>","QUESO","foods","guacamole, queso","","19","",""
"","","attention","50016","survey-text","124","277934","0.0-14.0-2.18","96","4","2023-06-05 18:25:07","b580c6cbc1ea35a8825601504c3c9405","","Mozilla/5.0 (Macintosh; Intel Mac OS X 10_15_7) AppleWebKit/537.36 (KHTML, like Gecko) Chrome/111.0.0.0 Safari/537.36","Macintosh","Chrome","111.0.0.0","OS X","10_15_7","739130931","","","foods","","","","",""
"null","null","","","html-keyboard-response","125","278439","0.0-14.0-0.19","96","4","2023-06-05 18:25:07","b580c6cbc1ea35a8825601504c3c9405","","Mozilla/5.0 (Macintosh; Intel Mac OS X 10_15_7) AppleWebKit/537.36 (KHTML, like Gecko) Chrome/111.0.0.0 Safari/537.36","Macintosh","Chrome","111.0.0.0","OS X","10_15_7","739130931","<p style=""font-size: 60px;"">+</p>","","","","","","",""
"2123","0","comparison","50016","html-button-response","126","280574","0.0-14.0-1.19-0.19","96","4","2023-06-05 18:25:07","b580c6cbc1ea35a8825601504c3c9405","","Mozilla/5.0 (Macintosh; Intel Mac OS X 10_15_7) AppleWebKit/537.36 (KHTML, like Gecko) Chrome/111.0.0.0 Safari/537.36","Macintosh","Chrome","111.0.0.0","OS X","10_15_7","739130931","<span style='color:red; font-size:150%'> QUESO</span> <span style='color:black;font-size:150%'> - </span><span style='color:green;font-size:150%'>BEANS</span> <br> <p> Would you put them in the same group?</p>","BEANS","foods","queso, beans","","20","",""
"","","attention","50016","survey-text","127","280579","0.0-14.0-2.19","96","4","2023-06-05 18:25:07","b580c6cbc1ea35a8825601504c3c9405","","Mozilla/5.0 (Macintosh; Intel Mac OS X 10_15_7) AppleWebKit/537.36 (KHTML, like Gecko) Chrome/111.0.0.0 Safari/537.36","Macintosh","Chrome","111.0.0.0","OS X","10_15_7","739130931","","","foods","","","","",""
"null","null","","","html-keyboard-response","128","281088","0.0-14.0-0.20","96","4","2023-06-05 18:25:07","b580c6cbc1ea35a8825601504c3c9405","","Mozilla/5.0 (Macintosh; Intel Mac OS X 10_15_7) AppleWebKit/537.36 (KHTML, like Gecko) Chrome/111.0.0.0 Safari/537.36","Macintosh","Chrome","111.0.0.0","OS X","10_15_7","739130931","<p style=""font-size: 60px;"">+</p>","","","","","","",""
"2537","0","comparison","50016","html-button-response","129","283630","0.0-14.0-1.20-0.20","96","4","2023-06-05 18:25:07","b580c6cbc1ea35a8825601504c3c9405","","Mozilla/5.0 (Macintosh; Intel Mac OS X 10_15_7) AppleWebKit/537.36 (KHTML, like Gecko) Chrome/111.0.0.0 Safari/537.36","Macintosh","Chrome","111.0.0.0","OS X","10_15_7","739130931","<span style='color:green; font-size:150%'> BEANS</span> <span style='color:black;font-size:150%'> - </span><span style='color:blue;font-size:150%'>RICE</span> <br> <p> Would you put them in the same group?</p>","RICE","foods","beans, rice","","21","",""
"","","attention","50016","survey-text","130","283634","0.0-14.0-2.20","96","4","2023-06-05 18:25:07","b580c6cbc1ea35a8825601504c3c9405","","Mozilla/5.0 (Macintosh; Intel Mac OS X 10_15_7) AppleWebKit/537.36 (KHTML, like Gecko) Chrome/111.0.0.0 Safari/537.36","Macintosh","Chrome","111.0.0.0","OS X","10_15_7","739130931","","","foods","","","","",""
"null","null","","","html-keyboard-response","131","284141","0.0-14.0-0.21","96","4","2023-06-05 18:25:07","b580c6cbc1ea35a8825601504c3c9405","","Mozilla/5.0 (Macintosh; Intel Mac OS X 10_15_7) AppleWebKit/537.36 (KHTML, like Gecko) Chrome/111.0.0.0 Safari/537.36","Macintosh","Chrome","111.0.0.0","OS X","10_15_7","739130931","<p style=""font-size: 60px;"">+</p>","","","","","","",""
"1649","1","comparison","50016","html-button-response","132","285794","0.0-14.0-1.21-0.21","96","4","2023-06-05 18:25:07","b580c6cbc1ea35a8825601504c3c9405","","Mozilla/5.0 (Macintosh; Intel Mac OS X 10_15_7) AppleWebKit/537.36 (KHTML, like Gecko) Chrome/111.0.0.0 Safari/537.36","Macintosh","Chrome","111.0.0.0","OS X","10_15_7","739130931","<span style='color:blue; font-size:150%'> RICE</span> <span style='color:black;font-size:150%'> - </span><span style='color:red;font-size:150%'>LETTUCE</span> <br> <p> Would you put them in the same group?</p>","LETTUCE","foods","rice, lettuce","","22","",""
"","","attention","50016","survey-text","133","285798","0.0-14.0-2.21","96","4","2023-06-05 18:25:07","b580c6cbc1ea35a8825601504c3c9405","","Mozilla/5.0 (Macintosh; Intel Mac OS X 10_15_7) AppleWebKit/537.36 (KHTML, like Gecko) Chrome/111.0.0.0 Safari/537.36","Macintosh","Chrome","111.0.0.0","OS X","10_15_7","739130931","","","foods","","","","",""
"null","null","","","html-keyboard-response","134","286306","0.0-14.0-0.22","96","4","2023-06-05 18:25:07","b580c6cbc1ea35a8825601504c3c9405","","Mozilla/5.0 (Macintosh; Intel Mac OS X 10_15_7) AppleWebKit/537.36 (KHTML, like Gecko) Chrome/111.0.0.0 Safari/537.36","Macintosh","Chrome","111.0.0.0","OS X","10_15_7","739130931","<p style=""font-size: 60px;"">+</p>","","","","","","",""
"1589","0","comparison","50016","html-button-response","135","287899","0.0-14.0-1.22-0.22","96","4","2023-06-05 18:25:07","b580c6cbc1ea35a8825601504c3c9405","","Mozilla/5.0 (Macintosh; Intel Mac OS X 10_15_7) AppleWebKit/537.36 (KHTML, like Gecko) Chrome/111.0.0.0 Safari/537.36","Macintosh","Chrome","111.0.0.0","OS X","10_15_7","739130931","<span style='color:red; font-size:150%'> LETTUCE</span> <span style='color:black;font-size:150%'> - </span><span style='color:green;font-size:150%'>TOMATO</span> <br> <p> Would you put them in the same group?</p>","TOMATO","foods","lettuce, tomato","","23","",""
"","","attention","50016","survey-text","136","287904","0.0-14.0-2.22","96","4","2023-06-05 18:25:07","b580c6cbc1ea35a8825601504c3c9405","","Mozilla/5.0 (Macintosh; Intel Mac OS X 10_15_7) AppleWebKit/537.36 (KHTML, like Gecko) Chrome/111.0.0.0 Safari/537.36","Macintosh","Chrome","111.0.0.0","OS X","10_15_7","739130931","","","foods","","","","",""
"null","null","","","html-keyboard-response","137","288408","0.0-14.0-0.23","96","4","2023-06-05 18:25:07","b580c6cbc1ea35a8825601504c3c9405","","Mozilla/5.0 (Macintosh; Intel Mac OS X 10_15_7) AppleWebKit/537.36 (KHTML, like Gecko) Chrome/111.0.0.0 Safari/537.36","Macintosh","Chrome","111.0.0.0","OS X","10_15_7","739130931","<p style=""font-size: 60px;"">+</p>","","","","","","",""
"1968","0","comparison","50016","html-button-response","138","290380","0.0-14.0-1.23-0.23","96","4","2023-06-05 18:25:07","b580c6cbc1ea35a8825601504c3c9405","","Mozilla/5.0 (Macintosh; Intel Mac OS X 10_15_7) AppleWebKit/537.36 (KHTML, like Gecko) Chrome/111.0.0.0 Safari/537.36","Macintosh","Chrome","111.0.0.0","OS X","10_15_7","739130931","<span style='color:green; font-size:150%'> TOMATO</span> <span style='color:black;font-size:150%'> - </span><span style='color:blue;font-size:150%'>PEPPERS</span> <br> <p> Would you put them in the same group?</p>","PEPPERS","foods","tomato, peppers","","24","",""
"","","attention","50016","survey-text","139","290384","0.0-14.0-2.23","96","4","2023-06-05 18:25:07","b580c6cbc1ea35a8825601504c3c9405","","Mozilla/5.0 (Macintosh; Intel Mac OS X 10_15_7) AppleWebKit/537.36 (KHTML, like Gecko) Chrome/111.0.0.0 Safari/537.36","Macintosh","Chrome","111.0.0.0","OS X","10_15_7","739130931","","","foods","","","","",""
"null","null","","","html-keyboard-response","140","290897","0.0-14.0-0.24","96","4","2023-06-05 18:25:07","b580c6cbc1ea35a8825601504c3c9405","","Mozilla/5.0 (Macintosh; Intel Mac OS X 10_15_7) AppleWebKit/537.36 (KHTML, like Gecko) Chrome/111.0.0.0 Safari/537.36","Macintosh","Chrome","111.0.0.0","OS X","10_15_7","739130931","<p style=""font-size: 60px;"">+</p>","","","","","","",""
"1829","0","comparison","50016","html-button-response","141","292729","0.0-14.0-1.24-0.24","96","4","2023-06-05 18:25:07","b580c6cbc1ea35a8825601504c3c9405","","Mozilla/5.0 (Macintosh; Intel Mac OS X 10_15_7) AppleWebKit/537.36 (KHTML, like Gecko) Chrome/111.0.0.0 Safari/537.36","Macintosh","Chrome","111.0.0.0","OS X","10_15_7","739130931","<span style='color:blue; font-size:150%'> PEPPERS</span> <span style='color:black;font-size:150%'> - </span><span style='color:red;font-size:150%'>JALAPENO</span> <br> <p> Would you put them in the same group?</p>","JALAPENO","foods","peppers, jalapeno","","25","",""
"","","attention","50016","survey-text","142","292734","0.0-14.0-2.24","96","4","2023-06-05 18:25:07","b580c6cbc1ea35a8825601504c3c9405","","Mozilla/5.0 (Macintosh; Intel Mac OS X 10_15_7) AppleWebKit/537.36 (KHTML, like Gecko) Chrome/111.0.0.0 Safari/537.36","Macintosh","Chrome","111.0.0.0","OS X","10_15_7","739130931","","","foods","","","","",""
"null","null","","","html-keyboard-response","143","293240","0.0-14.0-0.25","96","4","2023-06-05 18:25:07","b580c6cbc1ea35a8825601504c3c9405","","Mozilla/5.0 (Macintosh; Intel Mac OS X 10_15_7) AppleWebKit/537.36 (KHTML, like Gecko) Chrome/111.0.0.0 Safari/537.36","Macintosh","Chrome","111.0.0.0","OS X","10_15_7","739130931","<p style=""font-size: 60px;"">+</p>","","","","","","",""
"1879","0","comparison","50016","html-button-response","144","295122","0.0-14.0-1.25-0.25","96","4","2023-06-05 18:25:07","b580c6cbc1ea35a8825601504c3c9405","","Mozilla/5.0 (Macintosh; Intel Mac OS X 10_15_7) AppleWebKit/537.36 (KHTML, like Gecko) Chrome/111.0.0.0 Safari/537.36","Macintosh","Chrome","111.0.0.0","OS X","10_15_7","739130931","<span style='color:red; font-size:150%'> JALAPENO</span> <span style='color:black;font-size:150%'> - </span><span style='color:green;font-size:150%'>OLIVES</span> <br> <p> Would you put them in the same group?</p>","OLIVES","foods","jalapeno, olives","","26","",""
"","","attention","50016","survey-text","145","295126","0.0-14.0-2.25","96","4","2023-06-05 18:25:07","b580c6cbc1ea35a8825601504c3c9405","","Mozilla/5.0 (Macintosh; Intel Mac OS X 10_15_7) AppleWebKit/537.36 (KHTML, like Gecko) Chrome/111.0.0.0 Safari/537.36","Macintosh","Chrome","111.0.0.0","OS X","10_15_7","739130931","","","foods","","","","",""
"null","null","","","html-keyboard-response","146","295632","0.0-14.0-0.26","96","4","2023-06-05 18:25:07","b580c6cbc1ea35a8825601504c3c9405","","Mozilla/5.0 (Macintosh; Intel Mac OS X 10_15_7) AppleWebKit/537.36 (KHTML, like Gecko) Chrome/111.0.0.0 Safari/537.36","Macintosh","Chrome","111.0.0.0","OS X","10_15_7","739130931","<p style=""font-size: 60px;"">+</p>","","","","","","",""
"2224","1","comparison","50016","html-button-response","147","297861","0.0-14.0-1.26-0.26","96","4","2023-06-05 18:25:07","b580c6cbc1ea35a8825601504c3c9405","","Mozilla/5.0 (Macintosh; Intel Mac OS X 10_15_7) AppleWebKit/537.36 (KHTML, like Gecko) Chrome/111.0.0.0 Safari/537.36","Macintosh","Chrome","111.0.0.0","OS X","10_15_7","739130931","<span style='color:green; font-size:150%'> OLIVES</span> <span style='color:black;font-size:150%'> - </span><span style='color:blue;font-size:150%'>BREAD</span> <br> <p> Would you put them in the same group?</p>","BREAD","foods","olives, bread","","27","",""
"","","attention","50016","survey-text","148","297865","0.0-14.0-2.26","96","4","2023-06-05 18:25:07","b580c6cbc1ea35a8825601504c3c9405","","Mozilla/5.0 (Macintosh; Intel Mac OS X 10_15_7) AppleWebKit/537.36 (KHTML, like Gecko) Chrome/111.0.0.0 Safari/537.36","Macintosh","Chrome","111.0.0.0","OS X","10_15_7","739130931","","","foods","","","","",""
"null","null","","","html-keyboard-response","149","298378","0.0-14.0-0.27","96","4","2023-06-05 18:25:07","b580c6cbc1ea35a8825601504c3c9405","","Mozilla/5.0 (Macintosh; Intel Mac OS X 10_15_7) AppleWebKit/537.36 (KHTML, like Gecko) Chrome/111.0.0.0 Safari/537.36","Macintosh","Chrome","111.0.0.0","OS X","10_15_7","739130931","<p style=""font-size: 60px;"">+</p>","","","","","","",""
"1926","0","comparison","50016","html-button-response","150","300308","0.0-14.0-1.27-0.27","96","4","2023-06-05 18:25:07","b580c6cbc1ea35a8825601504c3c9405","","Mozilla/5.0 (Macintosh; Intel Mac OS X 10_15_7) AppleWebKit/537.36 (KHTML, like Gecko) Chrome/111.0.0.0 Safari/537.36","Macintosh","Chrome","111.0.0.0","OS X","10_15_7","739130931","<span style='color:blue; font-size:150%'> BREAD</span> <span style='color:black;font-size:150%'> - </span><span style='color:red;font-size:150%'>CRACKERS</span> <br> <p> Would you put them in the same group?</p>","CRACKERS","foods","bread, crackers","","28","",""
"","","attention","50016","survey-text","151","300313","0.0-14.0-2.27","96","4","2023-06-05 18:25:07","b580c6cbc1ea35a8825601504c3c9405","","Mozilla/5.0 (Macintosh; Intel Mac OS X 10_15_7) AppleWebKit/537.36 (KHTML, like Gecko) Chrome/111.0.0.0 Safari/537.36","Macintosh","Chrome","111.0.0.0","OS X","10_15_7","739130931","","","foods","","","","",""
"null","null","","","html-keyboard-response","152","300818","0.0-14.0-0.28","96","4","2023-06-05 18:25:07","b580c6cbc1ea35a8825601504c3c9405","","Mozilla/5.0 (Macintosh; Intel Mac OS X 10_15_7) AppleWebKit/537.36 (KHTML, like Gecko) Chrome/111.0.0.0 Safari/537.36","Macintosh","Chrome","111.0.0.0","OS X","10_15_7","739130931","<p style=""font-size: 60px;"">+</p>","","","","","","",""
"2092","1","comparison","50016","html-button-response","153","302915","0.0-14.0-1.28-0.28","96","4","2023-06-05 18:25:07","b580c6cbc1ea35a8825601504c3c9405","","Mozilla/5.0 (Macintosh; Intel Mac OS X 10_15_7) AppleWebKit/537.36 (KHTML, like Gecko) Chrome/111.0.0.0 Safari/537.36","Macintosh","Chrome","111.0.0.0","OS X","10_15_7","739130931","<span style='color:red; font-size:150%'> CRACKERS</span> <span style='color:black;font-size:150%'> - </span><span style='color:green;font-size:150%'>HUMMUS</span> <br> <p> Would you put them in the same group?</p>","HUMMUS","foods","crackers, hummus","","29","",""
"","","attention","50016","survey-text","154","302921","0.0-14.0-2.28","96","4","2023-06-05 18:25:07","b580c6cbc1ea35a8825601504c3c9405","","Mozilla/5.0 (Macintosh; Intel Mac OS X 10_15_7) AppleWebKit/537.36 (KHTML, like Gecko) Chrome/111.0.0.0 Safari/537.36","Macintosh","Chrome","111.0.0.0","OS X","10_15_7","739130931","","","foods","","","","",""
"null","null","","","html-keyboard-response","155","303432","0.0-14.0-0.29","96","4","2023-06-05 18:25:07","b580c6cbc1ea35a8825601504c3c9405","","Mozilla/5.0 (Macintosh; Intel Mac OS X 10_15_7) AppleWebKit/537.36 (KHTML, like Gecko) Chrome/111.0.0.0 Safari/537.36","Macintosh","Chrome","111.0.0.0","OS X","10_15_7","739130931","<p style=""font-size: 60px;"">+</p>","","","","","","",""
"1359","1","comparison","50016","html-button-response","156","304796","0.0-14.0-1.29-0.29","96","4","2023-06-05 18:25:07","b580c6cbc1ea35a8825601504c3c9405","","Mozilla/5.0 (Macintosh; Intel Mac OS X 10_15_7) AppleWebKit/537.36 (KHTML, like Gecko) Chrome/111.0.0.0 Safari/537.36","Macintosh","Chrome","111.0.0.0","OS X","10_15_7","739130931","<span style='color:green; font-size:150%'> HUMMUS</span> <span style='color:black;font-size:150%'> - </span><span style='color:blue;font-size:150%'>CANDY</span> <br> <p> Would you put them in the same group?</p>","CANDY","foods","hummus, candy","","30","",""
"","","attention","50016","survey-text","157","304800","0.0-14.0-2.29","96","4","2023-06-05 18:25:07","b580c6cbc1ea35a8825601504c3c9405","","Mozilla/5.0 (Macintosh; Intel Mac OS X 10_15_7) AppleWebKit/537.36 (KHTML, like Gecko) Chrome/111.0.0.0 Safari/537.36","Macintosh","Chrome","111.0.0.0","OS X","10_15_7","739130931","","","foods","","","","",""
"null","null","","","html-keyboard-response","158","305305","0.0-14.0-0.30","96","4","2023-06-05 18:25:07","b580c6cbc1ea35a8825601504c3c9405","","Mozilla/5.0 (Macintosh; Intel Mac OS X 10_15_7) AppleWebKit/537.36 (KHTML, like Gecko) Chrome/111.0.0.0 Safari/537.36","Macintosh","Chrome","111.0.0.0","OS X","10_15_7","739130931","<p style=""font-size: 60px;"">+</p>","","","","","","",""
"1927","0","comparison","50016","html-button-response","159","307235","0.0-14.0-1.30-0.30","96","4","2023-06-05 18:25:07","b580c6cbc1ea35a8825601504c3c9405","","Mozilla/5.0 (Macintosh; Intel Mac OS X 10_15_7) AppleWebKit/537.36 (KHTML, like Gecko) Chrome/111.0.0.0 Safari/537.36","Macintosh","Chrome","111.0.0.0","OS X","10_15_7","739130931","<span style='color:blue; font-size:150%'> CANDY</span> <span style='color:black;font-size:150%'> - </span><span style='color:red;font-size:150%'>ICE CREAM</span> <br> <p> Would you put them in the same group?</p>","ICE CREAM","foods","candy, ice cream","","31","",""
"","","attention","50016","survey-text","160","307239","0.0-14.0-2.30","96","4","2023-06-05 18:25:07","b580c6cbc1ea35a8825601504c3c9405","","Mozilla/5.0 (Macintosh; Intel Mac OS X 10_15_7) AppleWebKit/537.36 (KHTML, like Gecko) Chrome/111.0.0.0 Safari/537.36","Macintosh","Chrome","111.0.0.0","OS X","10_15_7","739130931","","","foods","","","","",""
"null","null","","","html-keyboard-response","161","307752","0.0-14.0-0.31","96","4","2023-06-05 18:25:07","b580c6cbc1ea35a8825601504c3c9405","","Mozilla/5.0 (Macintosh; Intel Mac OS X 10_15_7) AppleWebKit/537.36 (KHTML, like Gecko) Chrome/111.0.0.0 Safari/537.36","Macintosh","Chrome","111.0.0.0","OS X","10_15_7","739130931","<p style=""font-size: 60px;"">+</p>","","","","","","",""
"1399","0","comparison","50016","html-button-response","162","309155","0.0-14.0-1.31-0.31","96","4","2023-06-05 18:25:07","b580c6cbc1ea35a8825601504c3c9405","","Mozilla/5.0 (Macintosh; Intel Mac OS X 10_15_7) AppleWebKit/537.36 (KHTML, like Gecko) Chrome/111.0.0.0 Safari/537.36","Macintosh","Chrome","111.0.0.0","OS X","10_15_7","739130931","<span style='color:red; font-size:150%'> ICE CREAM</span> <span style='color:black;font-size:150%'> - </span><span style='color:green;font-size:150%'>FROZEN YOGURT</span> <br> <p> Would you put them in the same group?</p>","FROZEN YOGURT","foods","ice cream, frozen yogurt","","32","",""
"","","attention","50016","survey-text","163","309159","0.0-14.0-2.31","96","4","2023-06-05 18:25:07","b580c6cbc1ea35a8825601504c3c9405","","Mozilla/5.0 (Macintosh; Intel Mac OS X 10_15_7) AppleWebKit/537.36 (KHTML, like Gecko) Chrome/111.0.0.0 Safari/537.36","Macintosh","Chrome","111.0.0.0","OS X","10_15_7","739130931","","","foods","","","","",""
"null","null","","","html-keyboard-response","164","309672","0.0-14.0-0.32","96","4","2023-06-05 18:25:07","b580c6cbc1ea35a8825601504c3c9405","","Mozilla/5.0 (Macintosh; Intel Mac OS X 10_15_7) AppleWebKit/537.36 (KHTML, like Gecko) Chrome/111.0.0.0 Safari/537.36","Macintosh","Chrome","111.0.0.0","OS X","10_15_7","739130931","<p style=""font-size: 60px;"">+</p>","","","","","","",""
"1692","0","comparison","50016","html-button-response","165","311368","0.0-14.0-1.32-0.32","96","4","2023-06-05 18:25:07","b580c6cbc1ea35a8825601504c3c9405","","Mozilla/5.0 (Macintosh; Intel Mac OS X 10_15_7) AppleWebKit/537.36 (KHTML, like Gecko) Chrome/111.0.0.0 Safari/537.36","Macintosh","Chrome","111.0.0.0","OS X","10_15_7","739130931","<span style='color:green; font-size:150%'> FROZEN YOGURT</span> <span style='color:black;font-size:150%'> - </span><span style='color:blue;font-size:150%'>SORBET</span> <br> <p> Would you put them in the same group?</p>","SORBET","foods","frozen yogurt, sorbet","","33","",""
"","","attention","50016","survey-text","166","311373","0.0-14.0-2.32","96","4","2023-06-05 18:25:07","b580c6cbc1ea35a8825601504c3c9405","","Mozilla/5.0 (Macintosh; Intel Mac OS X 10_15_7) AppleWebKit/537.36 (KHTML, like Gecko) Chrome/111.0.0.0 Safari/537.36","Macintosh","Chrome","111.0.0.0","OS X","10_15_7","739130931","","","foods","","","","",""
"null","null","","","html-keyboard-response","167","311888","0.0-14.0-0.33","96","4","2023-06-05 18:25:07","b580c6cbc1ea35a8825601504c3c9405","","Mozilla/5.0 (Macintosh; Intel Mac OS X 10_15_7) AppleWebKit/537.36 (KHTML, like Gecko) Chrome/111.0.0.0 Safari/537.36","Macintosh","Chrome","111.0.0.0","OS X","10_15_7","739130931","<p style=""font-size: 60px;"">+</p>","","","","","","",""
"1404","1","comparison","50016","html-button-response","168","313297","0.0-14.0-1.33-0.33","96","4","2023-06-05 18:25:07","b580c6cbc1ea35a8825601504c3c9405","","Mozilla/5.0 (Macintosh; Intel Mac OS X 10_15_7) AppleWebKit/537.36 (KHTML, like Gecko) Chrome/111.0.0.0 Safari/537.36","Macintosh","Chrome","111.0.0.0","OS X","10_15_7","739130931","<span style='color:blue; font-size:150%'> SORBET</span> <span style='color:black;font-size:150%'> - </span><span style='color:red;font-size:150%'>PIE</span> <br> <p> Would you put them in the same group?</p>","PIE","foods","sorbet, pie","","34","",""
"","","attention","50016","survey-text","169","313300","0.0-14.0-2.33","96","4","2023-06-05 18:25:07","b580c6cbc1ea35a8825601504c3c9405","","Mozilla/5.0 (Macintosh; Intel Mac OS X 10_15_7) AppleWebKit/537.36 (KHTML, like Gecko) Chrome/111.0.0.0 Safari/537.36","Macintosh","Chrome","111.0.0.0","OS X","10_15_7","739130931","","","foods","","","","",""
"null","null","","","html-keyboard-response","170","313807","0.0-14.0-0.34","96","4","2023-06-05 18:25:07","b580c6cbc1ea35a8825601504c3c9405","","Mozilla/5.0 (Macintosh; Intel Mac OS X 10_15_7) AppleWebKit/537.36 (KHTML, like Gecko) Chrome/111.0.0.0 Safari/537.36","Macintosh","Chrome","111.0.0.0","OS X","10_15_7","739130931","<p style=""font-size: 60px;"">+</p>","","","","","","",""
"2178","0","comparison","50016","html-button-response","171","315989","0.0-14.0-1.34-0.34","96","4","2023-06-05 18:25:07","b580c6cbc1ea35a8825601504c3c9405","","Mozilla/5.0 (Macintosh; Intel Mac OS X 10_15_7) AppleWebKit/537.36 (KHTML, like Gecko) Chrome/111.0.0.0 Safari/537.36","Macintosh","Chrome","111.0.0.0","OS X","10_15_7","739130931","<span style='color:red; font-size:150%'> PIE</span> <span style='color:black;font-size:150%'> - </span><span style='color:green;font-size:150%'>QUICHE</span> <br> <p> Would you put them in the same group?</p>","QUICHE","foods","pie, quiche","","35","",""
"","","attention","50016","survey-text","172","315993","0.0-14.0-2.34","96","4","2023-06-05 18:25:07","b580c6cbc1ea35a8825601504c3c9405","","Mozilla/5.0 (Macintosh; Intel Mac OS X 10_15_7) AppleWebKit/537.36 (KHTML, like Gecko) Chrome/111.0.0.0 Safari/537.36","Macintosh","Chrome","111.0.0.0","OS X","10_15_7","739130931","","","foods","","","","",""
"null","null","","","html-keyboard-response","173","316503","0.0-14.0-0.35","96","4","2023-06-05 18:25:07","b580c6cbc1ea35a8825601504c3c9405","","Mozilla/5.0 (Macintosh; Intel Mac OS X 10_15_7) AppleWebKit/537.36 (KHTML, like Gecko) Chrome/111.0.0.0 Safari/537.36","Macintosh","Chrome","111.0.0.0","OS X","10_15_7","739130931","<p style=""font-size: 60px;"">+</p>","","","","","","",""
"1731","1","comparison","50016","html-button-response","174","318239","0.0-14.0-1.35-0.35","96","4","2023-06-05 18:25:07","b580c6cbc1ea35a8825601504c3c9405","","Mozilla/5.0 (Macintosh; Intel Mac OS X 10_15_7) AppleWebKit/537.36 (KHTML, like Gecko) Chrome/111.0.0.0 Safari/537.36","Macintosh","Chrome","111.0.0.0","OS X","10_15_7","739130931","<span style='color:green; font-size:150%'> QUICHE</span> <span style='color:black;font-size:150%'> - </span><span style='color:blue;font-size:150%'>SAUSAGE</span> <br> <p> Would you put them in the same group?</p>","SAUSAGE","foods","quiche, sausage","","36","",""
"","","attention","50016","survey-text","175","318243","0.0-14.0-2.35","96","4","2023-06-05 18:25:07","b580c6cbc1ea35a8825601504c3c9405","","Mozilla/5.0 (Macintosh; Intel Mac OS X 10_15_7) AppleWebKit/537.36 (KHTML, like Gecko) Chrome/111.0.0.0 Safari/537.36","Macintosh","Chrome","111.0.0.0","OS X","10_15_7","739130931","","","foods","","","","",""
"null","null","","","html-keyboard-response","176","318751","0.0-14.0-0.36","96","4","2023-06-05 18:25:07","b580c6cbc1ea35a8825601504c3c9405","","Mozilla/5.0 (Macintosh; Intel Mac OS X 10_15_7) AppleWebKit/537.36 (KHTML, like Gecko) Chrome/111.0.0.0 Safari/537.36","Macintosh","Chrome","111.0.0.0","OS X","10_15_7","739130931","<p style=""font-size: 60px;"">+</p>","","","","","","",""
"2176","1","comparison","50016","html-button-response","177","320932","0.0-14.0-1.36-0.36","96","4","2023-06-05 18:25:07","b580c6cbc1ea35a8825601504c3c9405","","Mozilla/5.0 (Macintosh; Intel Mac OS X 10_15_7) AppleWebKit/537.36 (KHTML, like Gecko) Chrome/111.0.0.0 Safari/537.36","Macintosh","Chrome","111.0.0.0","OS X","10_15_7","739130931","<span style='color:blue; font-size:150%'> SAUSAGE</span> <span style='color:black;font-size:150%'> - </span><span style='color:red;font-size:150%'>EGGS</span> <br> <p> Would you put them in the same group?</p>","EGGS","foods","sausage, eggs","","37","",""
"","","attention","50016","survey-text","178","320937","0.0-14.0-2.36","96","4","2023-06-05 18:25:07","b580c6cbc1ea35a8825601504c3c9405","","Mozilla/5.0 (Macintosh; Intel Mac OS X 10_15_7) AppleWebKit/537.36 (KHTML, like Gecko) Chrome/111.0.0.0 Safari/537.36","Macintosh","Chrome","111.0.0.0","OS X","10_15_7","739130931","","","foods","","","","",""
"null","null","","","html-keyboard-response","179","321447","0.0-14.0-0.37","96","4","2023-06-05 18:25:07","b580c6cbc1ea35a8825601504c3c9405","","Mozilla/5.0 (Macintosh; Intel Mac OS X 10_15_7) AppleWebKit/537.36 (KHTML, like Gecko) Chrome/111.0.0.0 Safari/537.36","Macintosh","Chrome","111.0.0.0","OS X","10_15_7","739130931","<p style=""font-size: 60px;"">+</p>","","","","","","",""
"1366","0","comparison","50016","html-button-response","180","322819","0.0-14.0-1.37-0.37","96","4","2023-06-05 18:25:07","b580c6cbc1ea35a8825601504c3c9405","","Mozilla/5.0 (Macintosh; Intel Mac OS X 10_15_7) AppleWebKit/537.36 (KHTML, like Gecko) Chrome/111.0.0.0 Safari/537.36","Macintosh","Chrome","111.0.0.0","OS X","10_15_7","739130931","<span style='color:red; font-size:150%'> EGGS</span> <span style='color:black;font-size:150%'> - </span><span style='color:green;font-size:150%'>CHEESE</span> <br> <p> Would you put them in the same group?</p>","CHEESE","foods","eggs, cheese","","38","",""
"","","attention","50016","survey-text","181","322823","0.0-14.0-2.37","96","4","2023-06-05 18:25:07","b580c6cbc1ea35a8825601504c3c9405","","Mozilla/5.0 (Macintosh; Intel Mac OS X 10_15_7) AppleWebKit/537.36 (KHTML, like Gecko) Chrome/111.0.0.0 Safari/537.36","Macintosh","Chrome","111.0.0.0","OS X","10_15_7","739130931","","","foods","","","","",""
"null","null","","","html-keyboard-response","182","323335","0.0-14.0-0.38","96","4","2023-06-05 18:25:07","b580c6cbc1ea35a8825601504c3c9405","","Mozilla/5.0 (Macintosh; Intel Mac OS X 10_15_7) AppleWebKit/537.36 (KHTML, like Gecko) Chrome/111.0.0.0 Safari/537.36","Macintosh","Chrome","111.0.0.0","OS X","10_15_7","739130931","<p style=""font-size: 60px;"">+</p>","","","","","","",""
"1468","1","comparison","50016","html-button-response","183","324809","0.0-14.0-1.38-0.38","96","4","2023-06-05 18:25:07","b580c6cbc1ea35a8825601504c3c9405","","Mozilla/5.0 (Macintosh; Intel Mac OS X 10_15_7) AppleWebKit/537.36 (KHTML, like Gecko) Chrome/111.0.0.0 Safari/537.36","Macintosh","Chrome","111.0.0.0","OS X","10_15_7","739130931","<span style='color:green; font-size:150%'> CHEESE</span> <span style='color:black;font-size:150%'> - </span><span style='color:blue;font-size:150%'>NUTS</span> <br> <p> Would you put them in the same group?</p>","NUTS","foods","cheese, nuts","","39","",""
"","","attention","50016","survey-text","184","324813","0.0-14.0-2.38","96","4","2023-06-05 18:25:07","b580c6cbc1ea35a8825601504c3c9405","","Mozilla/5.0 (Macintosh; Intel Mac OS X 10_15_7) AppleWebKit/537.36 (KHTML, like Gecko) Chrome/111.0.0.0 Safari/537.36","Macintosh","Chrome","111.0.0.0","OS X","10_15_7","739130931","","","foods","","","","",""
"null","null","","","html-keyboard-response","185","325327","0.0-14.0-0.39","96","4","2023-06-05 18:25:07","b580c6cbc1ea35a8825601504c3c9405","","Mozilla/5.0 (Macintosh; Intel Mac OS X 10_15_7) AppleWebKit/537.36 (KHTML, like Gecko) Chrome/111.0.0.0 Safari/537.36","Macintosh","Chrome","111.0.0.0","OS X","10_15_7","739130931","<p style=""font-size: 60px;"">+</p>","","","","","","",""
"1581","0","comparison","50016","html-button-response","186","326913","0.0-14.0-1.39-0.39","96","4","2023-06-05 18:25:07","b580c6cbc1ea35a8825601504c3c9405","","Mozilla/5.0 (Macintosh; Intel Mac OS X 10_15_7) AppleWebKit/537.36 (KHTML, like Gecko) Chrome/111.0.0.0 Safari/537.36","Macintosh","Chrome","111.0.0.0","OS X","10_15_7","739130931","<span style='color:blue; font-size:150%'> NUTS</span> <span style='color:black;font-size:150%'> - </span><span style='color:red;font-size:150%'>SUNFLOWER SEEDS</span> <br> <p> Would you put them in the same group?</p>","SUNFLOWER SEEDS","foods","nuts, sunflower seeds","","40","",""
"","","attention","50016","survey-text","187","326917","0.0-14.0-2.39","96","4","2023-06-05 18:25:07","b580c6cbc1ea35a8825601504c3c9405","","Mozilla/5.0 (Macintosh; Intel Mac OS X 10_15_7) AppleWebKit/537.36 (KHTML, like Gecko) Chrome/111.0.0.0 Safari/537.36","Macintosh","Chrome","111.0.0.0","OS X","10_15_7","739130931","","","foods","","","","",""
"null","null","","","html-keyboard-response","188","327424","0.0-14.0-0.40","96","4","2023-06-05 18:25:07","b580c6cbc1ea35a8825601504c3c9405","","Mozilla/5.0 (Macintosh; Intel Mac OS X 10_15_7) AppleWebKit/537.36 (KHTML, like Gecko) Chrome/111.0.0.0 Safari/537.36","Macintosh","Chrome","111.0.0.0","OS X","10_15_7","739130931","<p style=""font-size: 60px;"">+</p>","","","","","","",""
"1911","1","comparison","50016","html-button-response","189","329340","0.0-14.0-1.40-0.40","96","4","2023-06-05 18:25:07","b580c6cbc1ea35a8825601504c3c9405","","Mozilla/5.0 (Macintosh; Intel Mac OS X 10_15_7) AppleWebKit/537.36 (KHTML, like Gecko) Chrome/111.0.0.0 Safari/537.36","Macintosh","Chrome","111.0.0.0","OS X","10_15_7","739130931","<span style='color:red; font-size:150%'> SUNFLOWER SEEDS</span> <span style='color:black;font-size:150%'> - </span><span style='color:green;font-size:150%'>COOKIE</span> <br> <p> Would you put them in the same group?</p>","COOKIE","foods","sunflower seeds, cookie","","41","",""
"","","attention","50016","survey-text","190","329343","0.0-14.0-2.40","96","4","2023-06-05 18:25:07","b580c6cbc1ea35a8825601504c3c9405","","Mozilla/5.0 (Macintosh; Intel Mac OS X 10_15_7) AppleWebKit/537.36 (KHTML, like Gecko) Chrome/111.0.0.0 Safari/537.36","Macintosh","Chrome","111.0.0.0","OS X","10_15_7","739130931","","","foods","","","","",""
"null","null","","","html-keyboard-response","191","329856","0.0-14.0-0.41","96","4","2023-06-05 18:25:07","b580c6cbc1ea35a8825601504c3c9405","","Mozilla/5.0 (Macintosh; Intel Mac OS X 10_15_7) AppleWebKit/537.36 (KHTML, like Gecko) Chrome/111.0.0.0 Safari/537.36","Macintosh","Chrome","111.0.0.0","OS X","10_15_7","739130931","<p style=""font-size: 60px;"">+</p>","","","","","","",""
"1438","0","comparison","50016","html-button-response","192","331300","0.0-14.0-1.41-0.41","96","4","2023-06-05 18:25:07","b580c6cbc1ea35a8825601504c3c9405","","Mozilla/5.0 (Macintosh; Intel Mac OS X 10_15_7) AppleWebKit/537.36 (KHTML, like Gecko) Chrome/111.0.0.0 Safari/537.36","Macintosh","Chrome","111.0.0.0","OS X","10_15_7","739130931","<span style='color:green; font-size:150%'> COOKIE</span> <span style='color:black;font-size:150%'> - </span><span style='color:blue;font-size:150%'>DOUGHNUT</span> <br> <p> Would you put them in the same group?</p>","DOUGHNUT","foods","cookie, doughnut","","42","",""
"","","attention","50016","survey-text","193","331304","0.0-14.0-2.41","96","4","2023-06-05 18:25:07","b580c6cbc1ea35a8825601504c3c9405","","Mozilla/5.0 (Macintosh; Intel Mac OS X 10_15_7) AppleWebKit/537.36 (KHTML, like Gecko) Chrome/111.0.0.0 Safari/537.36","Macintosh","Chrome","111.0.0.0","OS X","10_15_7","739130931","","","foods","","","","",""
"null","null","","","html-keyboard-response","194","331810","0.0-14.0-0.42","96","4","2023-06-05 18:25:07","b580c6cbc1ea35a8825601504c3c9405","","Mozilla/5.0 (Macintosh; Intel Mac OS X 10_15_7) AppleWebKit/537.36 (KHTML, like Gecko) Chrome/111.0.0.0 Safari/537.36","Macintosh","Chrome","111.0.0.0","OS X","10_15_7","739130931","<p style=""font-size: 60px;"">+</p>","","","","","","",""
"1449","0","comparison","50016","html-button-response","195","333264","0.0-14.0-1.42-0.42","96","4","2023-06-05 18:25:07","b580c6cbc1ea35a8825601504c3c9405","","Mozilla/5.0 (Macintosh; Intel Mac OS X 10_15_7) AppleWebKit/537.36 (KHTML, like Gecko) Chrome/111.0.0.0 Safari/537.36","Macintosh","Chrome","111.0.0.0","OS X","10_15_7","739130931","<span style='color:blue; font-size:150%'> DOUGHNUT</span> <span style='color:black;font-size:150%'> - </span><span style='color:red;font-size:150%'>CUPCAKE</span> <br> <p> Would you put them in the same group?</p>","CUPCAKE","foods","doughnut, cupcake","","43","",""
"","","attention","50016","survey-text","196","333268","0.0-14.0-2.42","96","4","2023-06-05 18:25:07","b580c6cbc1ea35a8825601504c3c9405","","Mozilla/5.0 (Macintosh; Intel Mac OS X 10_15_7) AppleWebKit/537.36 (KHTML, like Gecko) Chrome/111.0.0.0 Safari/537.36","Macintosh","Chrome","111.0.0.0","OS X","10_15_7","739130931","","","foods","","","","",""
"null","null","","","html-keyboard-response","197","333776","0.0-14.0-0.43","96","4","2023-06-05 18:25:07","b580c6cbc1ea35a8825601504c3c9405","","Mozilla/5.0 (Macintosh; Intel Mac OS X 10_15_7) AppleWebKit/537.36 (KHTML, like Gecko) Chrome/111.0.0.0 Safari/537.36","Macintosh","Chrome","111.0.0.0","OS X","10_15_7","739130931","<p style=""font-size: 60px;"">+</p>","","","","","","",""
"2062","1","comparison","50016","html-button-response","198","335844","0.0-14.0-1.43-0.43","96","4","2023-06-05 18:25:07","b580c6cbc1ea35a8825601504c3c9405","","Mozilla/5.0 (Macintosh; Intel Mac OS X 10_15_7) AppleWebKit/537.36 (KHTML, like Gecko) Chrome/111.0.0.0 Safari/537.36","Macintosh","Chrome","111.0.0.0","OS X","10_15_7","739130931","<span style='color:red; font-size:150%'> CUPCAKE</span> <span style='color:black;font-size:150%'> - </span><span style='color:green;font-size:150%'>CHIPS</span> <br> <p> Would you put them in the same group?</p>","CHIPS","foods","cupcake, chips","","44","",""
"","","attention","50016","survey-text","199","335848","0.0-14.0-2.43","96","4","2023-06-05 18:25:07","b580c6cbc1ea35a8825601504c3c9405","","Mozilla/5.0 (Macintosh; Intel Mac OS X 10_15_7) AppleWebKit/537.36 (KHTML, like Gecko) Chrome/111.0.0.0 Safari/537.36","Macintosh","Chrome","111.0.0.0","OS X","10_15_7","739130931","","","foods","","","","",""
"null","null","","","html-keyboard-response","200","336355","0.0-14.0-0.44","96","4","2023-06-05 18:25:07","b580c6cbc1ea35a8825601504c3c9405","","Mozilla/5.0 (Macintosh; Intel Mac OS X 10_15_7) AppleWebKit/537.36 (KHTML, like Gecko) Chrome/111.0.0.0 Safari/537.36","Macintosh","Chrome","111.0.0.0","OS X","10_15_7","739130931","<p style=""font-size: 60px;"">+</p>","","","","","","",""
"1494","0","comparison","50016","html-button-response","201","337854","0.0-14.0-1.44-0.44","96","4","2023-06-05 18:25:07","b580c6cbc1ea35a8825601504c3c9405","","Mozilla/5.0 (Macintosh; Intel Mac OS X 10_15_7) AppleWebKit/537.36 (KHTML, like Gecko) Chrome/111.0.0.0 Safari/537.36","Macintosh","Chrome","111.0.0.0","OS X","10_15_7","739130931","<span style='color:green; font-size:150%'> CHIPS</span> <span style='color:black;font-size:150%'> - </span><span style='color:blue;font-size:150%'>SALSA</span> <br> <p> Would you put them in the same group?</p>","SALSA","foods","chips, salsa","","45","",""
"","","attention","50016","survey-text","202","337858","0.0-14.0-2.44","96","4","2023-06-05 18:25:07","b580c6cbc1ea35a8825601504c3c9405","","Mozilla/5.0 (Macintosh; Intel Mac OS X 10_15_7) AppleWebKit/537.36 (KHTML, like Gecko) Chrome/111.0.0.0 Safari/537.36","Macintosh","Chrome","111.0.0.0","OS X","10_15_7","739130931","","","foods","","","","",""
"null","null","","","html-keyboard-response","203","338366","0.0-14.0-0.45","96","4","2023-06-05 18:25:07","b580c6cbc1ea35a8825601504c3c9405","","Mozilla/5.0 (Macintosh; Intel Mac OS X 10_15_7) AppleWebKit/537.36 (KHTML, like Gecko) Chrome/111.0.0.0 Safari/537.36","Macintosh","Chrome","111.0.0.0","OS X","10_15_7","739130931","<p style=""font-size: 60px;"">+</p>","","","","","","",""
"2144","1","comparison","50016","html-button-response","204","340515","0.0-14.0-1.45-0.45","96","4","2023-06-05 18:25:07","b580c6cbc1ea35a8825601504c3c9405","","Mozilla/5.0 (Macintosh; Intel Mac OS X 10_15_7) AppleWebKit/537.36 (KHTML, like Gecko) Chrome/111.0.0.0 Safari/537.36","Macintosh","Chrome","111.0.0.0","OS X","10_15_7","739130931","<span style='color:blue; font-size:150%'> SALSA</span> <span style='color:black;font-size:150%'> - </span><span style='color:red;font-size:150%'>FRENCH FRIES</span> <br> <p> Would you put them in the same group?</p>","FRENCH FRIES","foods","salsa, french fries","","46","",""
"","","attention","50016","survey-text","205","340520","0.0-14.0-2.45","96","4","2023-06-05 18:25:07","b580c6cbc1ea35a8825601504c3c9405","","Mozilla/5.0 (Macintosh; Intel Mac OS X 10_15_7) AppleWebKit/537.36 (KHTML, like Gecko) Chrome/111.0.0.0 Safari/537.36","Macintosh","Chrome","111.0.0.0","OS X","10_15_7","739130931","","","foods","","","","",""
"null","null","","","html-keyboard-response","206","341031","0.0-14.0-0.46","96","4","2023-06-05 18:25:07","b580c6cbc1ea35a8825601504c3c9405","","Mozilla/5.0 (Macintosh; Intel Mac OS X 10_15_7) AppleWebKit/537.36 (KHTML, like Gecko) Chrome/111.0.0.0 Safari/537.36","Macintosh","Chrome","111.0.0.0","OS X","10_15_7","739130931","<p style=""font-size: 60px;"">+</p>","","","","","","",""
"1543","0","comparison","50016","html-button-response","207","342579","0.0-14.0-1.46-0.46","96","4","2023-06-05 18:25:07","b580c6cbc1ea35a8825601504c3c9405","","Mozilla/5.0 (Macintosh; Intel Mac OS X 10_15_7) AppleWebKit/537.36 (KHTML, like Gecko) Chrome/111.0.0.0 Safari/537.36","Macintosh","Chrome","111.0.0.0","OS X","10_15_7","739130931","<span style='color:red; font-size:150%'> FRENCH FRIES</span> <span style='color:black;font-size:150%'> - </span><span style='color:green;font-size:150%'>POTATOES</span> <br> <p> Would you put them in the same group?</p>","POTATOES","foods","french fries, potatoes","","47","",""
"","","attention","50016","survey-text","208","342585","0.0-14.0-2.46","96","4","2023-06-05 18:25:07","b580c6cbc1ea35a8825601504c3c9405","","Mozilla/5.0 (Macintosh; Intel Mac OS X 10_15_7) AppleWebKit/537.36 (KHTML, like Gecko) Chrome/111.0.0.0 Safari/537.36","Macintosh","Chrome","111.0.0.0","OS X","10_15_7","739130931","","","foods","","","","",""
"null","null","","","html-keyboard-response","209","343095","0.0-14.0-0.47","96","4","2023-06-05 18:25:07","b580c6cbc1ea35a8825601504c3c9405","","Mozilla/5.0 (Macintosh; Intel Mac OS X 10_15_7) AppleWebKit/537.36 (KHTML, like Gecko) Chrome/111.0.0.0 Safari/537.36","Macintosh","Chrome","111.0.0.0","OS X","10_15_7","739130931","<p style=""font-size: 60px;"">+</p>","","","","","","",""
"1683","0","comparison","50016","html-button-response","210","344782","0.0-14.0-1.47-0.47","96","4","2023-06-05 18:25:07","b580c6cbc1ea35a8825601504c3c9405","","Mozilla/5.0 (Macintosh; Intel Mac OS X 10_15_7) AppleWebKit/537.36 (KHTML, like Gecko) Chrome/111.0.0.0 Safari/537.36","Macintosh","Chrome","111.0.0.0","OS X","10_15_7","739130931","<span style='color:green; font-size:150%'> POTATOES</span> <span style='color:black;font-size:150%'> - </span><span style='color:blue;font-size:150%'>ONIONS</span> <br> <p> Would you put them in the same group?</p>","ONIONS","foods","potatoes, onions","","48","",""
"","","attention","50016","survey-text","211","344787","0.0-14.0-2.47","96","4","2023-06-05 18:25:07","b580c6cbc1ea35a8825601504c3c9405","","Mozilla/5.0 (Macintosh; Intel Mac OS X 10_15_7) AppleWebKit/537.36 (KHTML, like Gecko) Chrome/111.0.0.0 Safari/537.36","Macintosh","Chrome","111.0.0.0","OS X","10_15_7","739130931","","","foods","","","","",""
"null","null","","","html-keyboard-response","212","345295","0.0-14.0-0.48","96","4","2023-06-05 18:25:07","b580c6cbc1ea35a8825601504c3c9405","","Mozilla/5.0 (Macintosh; Intel Mac OS X 10_15_7) AppleWebKit/537.36 (KHTML, like Gecko) Chrome/111.0.0.0 Safari/537.36","Macintosh","Chrome","111.0.0.0","OS X","10_15_7","739130931","<p style=""font-size: 60px;"">+</p>","","","","","","",""
"1953","1","comparison","50016","html-button-response","213","347253","0.0-14.0-1.48-0.48","96","4","2023-06-05 18:25:07","b580c6cbc1ea35a8825601504c3c9405","","Mozilla/5.0 (Macintosh; Intel Mac OS X 10_15_7) AppleWebKit/537.36 (KHTML, like Gecko) Chrome/111.0.0.0 Safari/537.36","Macintosh","Chrome","111.0.0.0","OS X","10_15_7","739130931","<span style='color:blue; font-size:150%'> ONIONS</span> <span style='color:black;font-size:150%'> - </span><span style='color:red;font-size:150%'>PASTA</span> <br> <p> Would you put them in the same group?</p>","PASTA","foods","onions, pasta","","49","",""
"","","attention","50016","survey-text","214","347257","0.0-14.0-2.48","96","4","2023-06-05 18:25:07","b580c6cbc1ea35a8825601504c3c9405","","Mozilla/5.0 (Macintosh; Intel Mac OS X 10_15_7) AppleWebKit/537.36 (KHTML, like Gecko) Chrome/111.0.0.0 Safari/537.36","Macintosh","Chrome","111.0.0.0","OS X","10_15_7","739130931","","","foods","","","","",""
"null","null","","","html-keyboard-response","215","347775","0.0-14.0-0.49","96","4","2023-06-05 18:25:07","b580c6cbc1ea35a8825601504c3c9405","","Mozilla/5.0 (Macintosh; Intel Mac OS X 10_15_7) AppleWebKit/537.36 (KHTML, like Gecko) Chrome/111.0.0.0 Safari/537.36","Macintosh","Chrome","111.0.0.0","OS X","10_15_7","739130931","<p style=""font-size: 60px;"">+</p>","","","","","","",""
"1255","1","comparison","50016","html-button-response","216","349035","0.0-14.0-1.49-0.49","96","4","2023-06-05 18:25:07","b580c6cbc1ea35a8825601504c3c9405","","Mozilla/5.0 (Macintosh; Intel Mac OS X 10_15_7) AppleWebKit/537.36 (KHTML, like Gecko) Chrome/111.0.0.0 Safari/537.36","Macintosh","Chrome","111.0.0.0","OS X","10_15_7","739130931","<span style='color:red; font-size:150%'> PASTA</span> <span style='color:black;font-size:150%'> - </span><span style='color:green;font-size:150%'>YOGURT</span> <br> <p> Would you put them in the same group?</p>","YOGURT","foods","pasta, yogurt","","50","",""
"","","attention","50016","survey-text","217","349040","0.0-14.0-2.49","96","4","2023-06-05 18:25:07","b580c6cbc1ea35a8825601504c3c9405","","Mozilla/5.0 (Macintosh; Intel Mac OS X 10_15_7) AppleWebKit/537.36 (KHTML, like Gecko) Chrome/111.0.0.0 Safari/537.36","Macintosh","Chrome","111.0.0.0","OS X","10_15_7","739130931","","","foods","","","","",""
"null","null","","","html-keyboard-response","218","349049","0.0-15.0","96","4","2023-06-05 18:25:07","b580c6cbc1ea35a8825601504c3c9405","","Mozilla/5.0 (Macintosh; Intel Mac OS X 10_15_7) AppleWebKit/537.36 (KHTML, like Gecko) Chrome/111.0.0.0 Safari/537.36","Macintosh","Chrome","111.0.0.0","OS X","10_15_7","739130931","<p style=""font-size: 48px;""></p>","","","","","","",""
"null","null","","","html-keyboard-response","219","349560","0.0-16.0-0.0","96","4","2023-06-05 18:25:07","b580c6cbc1ea35a8825601504c3c9405","","Mozilla/5.0 (Macintosh; Intel Mac OS X 10_15_7) AppleWebKit/537.36 (KHTML, like Gecko) Chrome/111.0.0.0 Safari/537.36","Macintosh","Chrome","111.0.0.0","OS X","10_15_7","739130931","<p style=""font-size: 60px;"">+</p>","","","","","","",""
"","2","comparison","50003","html-button-response","220","349566","0.0-16.0-1.0-0.0","96","4","2023-06-05 18:25:07","b580c6cbc1ea35a8825601504c3c9405","","Mozilla/5.0 (Macintosh; Intel Mac OS X 10_15_7) AppleWebKit/537.36 (KHTML, like Gecko) Chrome/111.0.0.0 Safari/537.36","Macintosh","Chrome","111.0.0.0","OS X","10_15_7","739130931","","FRENCH FRIES","foods","","","1","",""
"","","attention","50003","survey-text","221","349571","0.0-16.0-2.0","96","4","2023-06-05 18:25:07","b580c6cbc1ea35a8825601504c3c9405","","Mozilla/5.0 (Macintosh; Intel Mac OS X 10_15_7) AppleWebKit/537.36 (KHTML, like Gecko) Chrome/111.0.0.0 Safari/537.36","Macintosh","Chrome","111.0.0.0","OS X","10_15_7","739130931","","","foods","","","","",""
"null","null","","","html-keyboard-response","222","350078","0.0-16.0-0.1","96","4","2023-06-05 18:25:07","b580c6cbc1ea35a8825601504c3c9405","","Mozilla/5.0 (Macintosh; Intel Mac OS X 10_15_7) AppleWebKit/537.36 (KHTML, like Gecko) Chrome/111.0.0.0 Safari/537.36","Macintosh","Chrome","111.0.0.0","OS X","10_15_7","739130931","<p style=""font-size: 60px;"">+</p>","","","","","","",""
